STUDYID,DOMAIN,USUBJID,LBSEQ,LBTESTCD,LBTEST,LBCAT,LBORRES,LBORRESU,LBORNRLO,LBORNRHI,LBSTRESC,LBSTRESN,LBSTRESU,LBSTNRLO,LBSTNRHI,LBNRIND,LBBLFL,VISITNUM,VISIT,VISITDY,LBDTC,LBDY
CDISCPILOT01,LB,01-701-1015,1,ALB,Albumin,CHEMISTRY,3.8,g/dL,3.3,4.9,38,38,g/L,33,49,NORMAL,Y,1,SCREENING 1,-7,2013-12-26T14:45,-7
CDISCPILOT01,LB,01-701-1015,39,ALB,Albumin,CHEMISTRY,3.9,g/dL,3.3,4.9,39,39,g/L,33,49,NORMAL,NA,4,WEEK 2,14,2014-01-16T13:17,15
CDISCPILOT01,LB,01-701-1015,74,ALB,Albumin,CHEMISTRY,3.8,g/dL,3.3,4.9,38,38,g/L,33,49,NORMAL,NA,5,WEEK 4,28,2014-01-30T08:50,29
CDISCPILOT01,LB,01-701-1015,104,ALB,Albumin,CHEMISTRY,3.7,g/dL,3.3,4.9,37,37,g/L,33,49,NORMAL,NA,7,WEEK 6,42,2014-02-12T12:56,42
CDISCPILOT01,LB,01-701-1015,134,ALB,Albumin,CHEMISTRY,3.8,g/dL,3.3,4.9,38,38,g/L,33,49,NORMAL,NA,8,WEEK 8,56,2014-03-05T12:25,63
CDISCPILOT01,LB,01-701-1015,164,ALB,Albumin,CHEMISTRY,3.8,g/dL,3.3,4.9,38,38,g/L,33,49,NORMAL,NA,9,WEEK 12,84,2014-03-26T15:15,84
CDISCPILOT01,LB,01-701-1015,199,ALB,Albumin,CHEMISTRY,3.7,g/dL,3.3,4.9,37,37,g/L,33,49,NORMAL,NA,10,WEEK 16,112,2014-05-07T11:21,126
CDISCPILOT01,LB,01-701-1015,229,ALB,Albumin,CHEMISTRY,3.7,g/dL,3.3,4.9,37,37,g/L,33,49,NORMAL,NA,11,WEEK 20,140,2014-05-21T10:58,140
CDISCPILOT01,LB,01-701-1015,259,ALB,Albumin,CHEMISTRY,3.8,g/dL,3.3,4.9,38,38,g/L,33,49,NORMAL,NA,12,WEEK 24,168,2014-06-18T13:00,168
CDISCPILOT01,LB,01-701-1015,294,ALB,Albumin,CHEMISTRY,3.8,g/dL,3.3,4.9,38,38,g/L,33,49,NORMAL,NA,13,WEEK 26,182,2014-07-02T11:45,182
CDISCPILOT01,LB,01-701-1015,2,ALP,Alkaline Phosphatase,CHEMISTRY,34,U/L,35,115,34,34,U/L,35,115,LOW,Y,1,SCREENING 1,-7,2013-12-26T14:45,-7
CDISCPILOT01,LB,01-701-1015,40,ALP,Alkaline Phosphatase,CHEMISTRY,50,U/L,35,115,50,50,U/L,35,115,NORMAL,NA,4,WEEK 2,14,2014-01-16T13:17,15
CDISCPILOT01,LB,01-701-1015,75,ALP,Alkaline Phosphatase,CHEMISTRY,41,U/L,35,115,41,41,U/L,35,115,NORMAL,NA,5,WEEK 4,28,2014-01-30T08:50,29
CDISCPILOT01,LB,01-701-1015,105,ALP,Alkaline Phosphatase,CHEMISTRY,43,U/L,35,115,43,43,U/L,35,115,NORMAL,NA,7,WEEK 6,42,2014-02-12T12:56,42
CDISCPILOT01,LB,01-701-1015,135,ALP,Alkaline Phosphatase,CHEMISTRY,47,U/L,35,115,47,47,U/L,35,115,NORMAL,NA,8,WEEK 8,56,2014-03-05T12:25,63
CDISCPILOT01,LB,01-701-1015,165,ALP,Alkaline Phosphatase,CHEMISTRY,53,U/L,35,115,53,53,U/L,35,115,NORMAL,NA,9,WEEK 12,84,2014-03-26T15:15,84
CDISCPILOT01,LB,01-701-1015,200,ALP,Alkaline Phosphatase,CHEMISTRY,41,U/L,35,115,41,41,U/L,35,115,NORMAL,NA,10,WEEK 16,112,2014-05-07T11:21,126
CDISCPILOT01,LB,01-701-1015,230,ALP,Alkaline Phosphatase,CHEMISTRY,45,U/L,35,115,45,45,U/L,35,115,NORMAL,NA,11,WEEK 20,140,2014-05-21T10:58,140
CDISCPILOT01,LB,01-701-1015,260,ALP,Alkaline Phosphatase,CHEMISTRY,46,U/L,35,115,46,46,U/L,35,115,NORMAL,NA,12,WEEK 24,168,2014-06-18T13:00,168
CDISCPILOT01,LB,01-701-1015,295,ALP,Alkaline Phosphatase,CHEMISTRY,44,U/L,35,115,44,44,U/L,35,115,NORMAL,NA,13,WEEK 26,182,2014-07-02T11:45,182
CDISCPILOT01,LB,01-701-1015,3,ALT,Alanine Aminotransferase,CHEMISTRY,27,U/L,6,34,27,27,U/L,6,34,NORMAL,Y,1,SCREENING 1,-7,2013-12-26T14:45,-7
CDISCPILOT01,LB,01-701-1015,41,ALT,Alanine Aminotransferase,CHEMISTRY,41,U/L,6,34,41,41,U/L,6,34,HIGH,NA,4,WEEK 2,14,2014-01-16T13:17,15
CDISCPILOT01,LB,01-701-1015,76,ALT,Alanine Aminotransferase,CHEMISTRY,18,U/L,6,34,18,18,U/L,6,34,NORMAL,NA,5,WEEK 4,28,2014-01-30T08:50,29
CDISCPILOT01,LB,01-701-1015,106,ALT,Alanine Aminotransferase,CHEMISTRY,26,U/L,6,34,26,26,U/L,6,34,NORMAL,NA,7,WEEK 6,42,2014-02-12T12:56,42
CDISCPILOT01,LB,01-701-1015,136,ALT,Alanine Aminotransferase,CHEMISTRY,22,U/L,6,34,22,22,U/L,6,34,NORMAL,NA,8,WEEK 8,56,2014-03-05T12:25,63
CDISCPILOT01,LB,01-701-1015,166,ALT,Alanine Aminotransferase,CHEMISTRY,27,U/L,6,34,27,27,U/L,6,34,NORMAL,NA,9,WEEK 12,84,2014-03-26T15:15,84
CDISCPILOT01,LB,01-701-1015,201,ALT,Alanine Aminotransferase,CHEMISTRY,17,U/L,6,34,17,17,U/L,6,34,NORMAL,NA,10,WEEK 16,112,2014-05-07T11:21,126
CDISCPILOT01,LB,01-701-1015,231,ALT,Alanine Aminotransferase,CHEMISTRY,21,U/L,6,34,21,21,U/L,6,34,NORMAL,NA,11,WEEK 20,140,2014-05-21T10:58,140
CDISCPILOT01,LB,01-701-1015,261,ALT,Alanine Aminotransferase,CHEMISTRY,23,U/L,6,34,23,23,U/L,6,34,NORMAL,NA,12,WEEK 24,168,2014-06-18T13:00,168
CDISCPILOT01,LB,01-701-1015,296,ALT,Alanine Aminotransferase,CHEMISTRY,23,U/L,6,34,23,23,U/L,6,34,NORMAL,NA,13,WEEK 26,182,2014-07-02T11:45,182
CDISCPILOT01,LB,01-701-1015,4,ANISO,Anisocytes,HEMATOLOGY,1,NO UNITS,NA,NA,1,1,NA,NA,NA,ABNORMAL,Y,1,SCREENING 1,-7,2013-12-26T14:45,-7
CDISCPILOT01,LB,01-701-1015,5,AST,Aspartate Aminotransferase,CHEMISTRY,40,U/L,9,34,40,40,U/L,9,34,HIGH,Y,1,SCREENING 1,-7,2013-12-26T14:45,-7
CDISCPILOT01,LB,01-701-1015,42,AST,Aspartate Aminotransferase,CHEMISTRY,33,U/L,9,34,33,33,U/L,9,34,NORMAL,NA,4,WEEK 2,14,2014-01-16T13:17,15
CDISCPILOT01,LB,01-701-1015,77,AST,Aspartate Aminotransferase,CHEMISTRY,21,U/L,9,34,21,21,U/L,9,34,NORMAL,NA,5,WEEK 4,28,2014-01-30T08:50,29
CDISCPILOT01,LB,01-701-1015,107,AST,Aspartate Aminotransferase,CHEMISTRY,26,U/L,9,34,26,26,U/L,9,34,NORMAL,NA,7,WEEK 6,42,2014-02-12T12:56,42
CDISCPILOT01,LB,01-701-1015,137,AST,Aspartate Aminotransferase,CHEMISTRY,21,U/L,9,34,21,21,U/L,9,34,NORMAL,NA,8,WEEK 8,56,2014-03-05T12:25,63
CDISCPILOT01,LB,01-701-1015,167,AST,Aspartate Aminotransferase,CHEMISTRY,22,U/L,9,34,22,22,U/L,9,34,NORMAL,NA,9,WEEK 12,84,2014-03-26T15:15,84
CDISCPILOT01,LB,01-701-1015,202,AST,Aspartate Aminotransferase,CHEMISTRY,23,U/L,9,34,23,23,U/L,9,34,NORMAL,NA,10,WEEK 16,112,2014-05-07T11:21,126
CDISCPILOT01,LB,01-701-1015,232,AST,Aspartate Aminotransferase,CHEMISTRY,19,U/L,9,34,19,19,U/L,9,34,NORMAL,NA,11,WEEK 20,140,2014-05-21T10:58,140
CDISCPILOT01,LB,01-701-1015,262,AST,Aspartate Aminotransferase,CHEMISTRY,23,U/L,9,34,23,23,U/L,9,34,NORMAL,NA,12,WEEK 24,168,2014-06-18T13:00,168
CDISCPILOT01,LB,01-701-1015,297,AST,Aspartate Aminotransferase,CHEMISTRY,19,U/L,9,34,19,19,U/L,9,34,NORMAL,NA,13,WEEK 26,182,2014-07-02T11:45,182
CDISCPILOT01,LB,01-701-1015,78,BASO,Basophils,HEMATOLOGY,0.02,THOU/uL,0,0.2,0.02,0.02,GI/L,0,0.19999999999999998,NORMAL,NA,5,WEEK 4,28,2014-01-30T08:50,29
CDISCPILOT01,LB,01-701-1015,108,BASO,Basophils,HEMATOLOGY,0.04,THOU/uL,0,0.2,0.04,0.039999999999999994,GI/L,0,0.19999999999999998,NORMAL,NA,7,WEEK 6,42,2014-02-12T12:56,42
CDISCPILOT01,LB,01-701-1015,138,BASO,Basophils,HEMATOLOGY,0.05,THOU/uL,0,0.2,0.05,0.049999999999999996,GI/L,0,0.19999999999999998,NORMAL,NA,8,WEEK 8,56,2014-03-05T12:25,63
CDISCPILOT01,LB,01-701-1015,168,BASO,Basophils,HEMATOLOGY,0.04,THOU/uL,0,0.2,0.04,0.039999999999999994,GI/L,0,0.19999999999999998,NORMAL,NA,9,WEEK 12,84,2014-03-26T15:15,84
CDISCPILOT01,LB,01-701-1015,203,BASO,Basophils,HEMATOLOGY,0.03,THOU/uL,0,0.2,0.03,0.03,GI/L,0,0.19999999999999998,NORMAL,NA,10,WEEK 16,112,2014-05-07T11:21,126
CDISCPILOT01,LB,01-701-1015,233,BASO,Basophils,HEMATOLOGY,0.03,THOU/uL,0,0.2,0.03,0.03,GI/L,0,0.19999999999999998,NORMAL,NA,11,WEEK 20,140,2014-05-21T10:58,140
CDISCPILOT01,LB,01-701-1015,263,BASO,Basophils,HEMATOLOGY,0.04,THOU/uL,0,0.2,0.04,0.039999999999999994,GI/L,0,0.19999999999999998,NORMAL,NA,12,WEEK 24,168,2014-06-18T13:00,168
CDISCPILOT01,LB,01-701-1015,298,BASO,Basophils,HEMATOLOGY,0.03,THOU/uL,0,0.2,0.03,0.03,GI/L,0,0.19999999999999998,NORMAL,NA,13,WEEK 26,182,2014-07-02T11:45,182
CDISCPILOT01,LB,01-701-1015,7,BILI,Bilirubin,CHEMISTRY,0.6,mg/dL,0.2,1.2,10.26,10.26,umol/L,3,21,NORMAL,Y,1,SCREENING 1,-7,2013-12-26T14:45,-7
CDISCPILOT01,LB,01-701-1015,44,BILI,Bilirubin,CHEMISTRY,0.5,mg/dL,0.2,1.2,8.55,8.549999999999999,umol/L,3,21,NORMAL,NA,4,WEEK 2,14,2014-01-16T13:17,15
CDISCPILOT01,LB,01-701-1015,79,BILI,Bilirubin,CHEMISTRY,0.4,mg/dL,0.2,1.2,6.84,6.84,umol/L,3,21,NORMAL,NA,5,WEEK 4,28,2014-01-30T08:50,29
CDISCPILOT01,LB,01-701-1015,109,BILI,Bilirubin,CHEMISTRY,0.3,mg/dL,0.2,1.2,5.13,5.13,umol/L,3,21,NORMAL,NA,7,WEEK 6,42,2014-02-12T12:56,42
CDISCPILOT01,LB,01-701-1015,139,BILI,Bilirubin,CHEMISTRY,0.5,mg/dL,0.2,1.2,8.55,8.549999999999999,umol/L,3,21,NORMAL,NA,8,WEEK 8,56,2014-03-05T12:25,63
CDISCPILOT01,LB,01-701-1015,169,BILI,Bilirubin,CHEMISTRY,0.4,mg/dL,0.2,1.2,6.84,6.84,umol/L,3,21,NORMAL,NA,9,WEEK 12,84,2014-03-26T15:15,84
CDISCPILOT01,LB,01-701-1015,204,BILI,Bilirubin,CHEMISTRY,0.4,mg/dL,0.2,1.2,6.84,6.84,umol/L,3,21,NORMAL,NA,10,WEEK 16,112,2014-05-07T11:21,126
CDISCPILOT01,LB,01-701-1015,234,BILI,Bilirubin,CHEMISTRY,0.4,mg/dL,0.2,1.2,6.84,6.84,umol/L,3,21,NORMAL,NA,11,WEEK 20,140,2014-05-21T10:58,140
CDISCPILOT01,LB,01-701-1015,264,BILI,Bilirubin,CHEMISTRY,0.4,mg/dL,0.2,1.2,6.84,6.84,umol/L,3,21,NORMAL,NA,12,WEEK 24,168,2014-06-18T13:00,168
CDISCPILOT01,LB,01-701-1015,299,BILI,Bilirubin,CHEMISTRY,0.3,mg/dL,0.2,1.2,5.13,5.13,umol/L,3,21,NORMAL,NA,13,WEEK 26,182,2014-07-02T11:45,182
CDISCPILOT01,LB,01-701-1015,8,BUN,Blood Urea Nitrogen,CHEMISTRY,10,mg/dL,4,24,3.57,3.57,mmol/L,1.4,8.6,NORMAL,Y,1,SCREENING 1,-7,2013-12-26T14:45,-7
CDISCPILOT01,LB,01-701-1015,45,BUN,Blood Urea Nitrogen,CHEMISTRY,10,mg/dL,4,24,3.57,3.57,mmol/L,1.4,8.6,NORMAL,NA,4,WEEK 2,14,2014-01-16T13:17,15
CDISCPILOT01,LB,01-701-1015,80,BUN,Blood Urea Nitrogen,CHEMISTRY,8,mg/dL,4,24,2.856,2.856,mmol/L,1.4,8.6,NORMAL,NA,5,WEEK 4,28,2014-01-30T08:50,29
CDISCPILOT01,LB,01-701-1015,110,BUN,Blood Urea Nitrogen,CHEMISTRY,12,mg/dL,4,24,4.284,4.284,mmol/L,1.4,8.6,NORMAL,NA,7,WEEK 6,42,2014-02-12T12:56,42
CDISCPILOT01,LB,01-701-1015,140,BUN,Blood Urea Nitrogen,CHEMISTRY,11,mg/dL,4,24,3.927,3.927,mmol/L,1.4,8.6,NORMAL,NA,8,WEEK 8,56,2014-03-05T12:25,63
CDISCPILOT01,LB,01-701-1015,170,BUN,Blood Urea Nitrogen,CHEMISTRY,10,mg/dL,4,24,3.57,3.57,mmol/L,1.4,8.6,NORMAL,NA,9,WEEK 12,84,2014-03-26T15:15,84
CDISCPILOT01,LB,01-701-1015,205,BUN,Blood Urea Nitrogen,CHEMISTRY,10,mg/dL,4,24,3.57,3.57,mmol/L,1.4,8.6,NORMAL,NA,10,WEEK 16,112,2014-05-07T11:21,126
CDISCPILOT01,LB,01-701-1015,235,BUN,Blood Urea Nitrogen,CHEMISTRY,11,mg/dL,4,24,3.927,3.927,mmol/L,1.4,8.6,NORMAL,NA,11,WEEK 20,140,2014-05-21T10:58,140
CDISCPILOT01,LB,01-701-1015,265,BUN,Blood Urea Nitrogen,CHEMISTRY,12,mg/dL,4,24,4.284,4.284,mmol/L,1.4,8.6,NORMAL,NA,12,WEEK 24,168,2014-06-18T13:00,168
CDISCPILOT01,LB,01-701-1015,300,BUN,Blood Urea Nitrogen,CHEMISTRY,11,mg/dL,4,24,3.927,3.927,mmol/L,1.4,8.6,NORMAL,NA,13,WEEK 26,182,2014-07-02T11:45,182
CDISCPILOT01,LB,01-701-1015,9,CA,Calcium,CHEMISTRY,8.8,mg/dL,8.4,10.3,2.1956,2.1955999999999998,mmol/L,2.1,2.57,NORMAL,Y,1,SCREENING 1,-7,2013-12-26T14:45,-7
CDISCPILOT01,LB,01-701-1015,46,CA,Calcium,CHEMISTRY,9.4,mg/dL,8.4,10.3,2.3453,2.3453,mmol/L,2.1,2.57,NORMAL,NA,4,WEEK 2,14,2014-01-16T13:17,15
CDISCPILOT01,LB,01-701-1015,81,CA,Calcium,CHEMISTRY,9.1,mg/dL,8.4,10.3,2.27045,2.27045,mmol/L,2.1,2.57,NORMAL,NA,5,WEEK 4,28,2014-01-30T08:50,29
CDISCPILOT01,LB,01-701-1015,111,CA,Calcium,CHEMISTRY,9.2,mg/dL,8.4,10.3,2.2954,2.2954,mmol/L,2.1,2.57,NORMAL,NA,7,WEEK 6,42,2014-02-12T12:56,42
CDISCPILOT01,LB,01-701-1015,141,CA,Calcium,CHEMISTRY,8.9,mg/dL,8.4,10.3,2.22055,2.22055,mmol/L,2.1,2.57,NORMAL,NA,8,WEEK 8,56,2014-03-05T12:25,63
CDISCPILOT01,LB,01-701-1015,171,CA,Calcium,CHEMISTRY,9.4,mg/dL,8.4,10.3,2.3453,2.3453,mmol/L,2.1,2.57,NORMAL,NA,9,WEEK 12,84,2014-03-26T15:15,84
CDISCPILOT01,LB,01-701-1015,206,CA,Calcium,CHEMISTRY,8.8,mg/dL,8.4,10.3,2.1956,2.1955999999999998,mmol/L,2.1,2.57,NORMAL,NA,10,WEEK 16,112,2014-05-07T11:21,126
CDISCPILOT01,LB,01-701-1015,236,CA,Calcium,CHEMISTRY,8.7,mg/dL,8.4,10.3,2.17065,2.1706499999999997,mmol/L,2.1,2.57,NORMAL,NA,11,WEEK 20,140,2014-05-21T10:58,140
CDISCPILOT01,LB,01-701-1015,266,CA,Calcium,CHEMISTRY,8.9,mg/dL,8.4,10.3,2.22055,2.22055,mmol/L,2.1,2.57,NORMAL,NA,12,WEEK 24,168,2014-06-18T13:00,168
CDISCPILOT01,LB,01-701-1015,301,CA,Calcium,CHEMISTRY,8.8,mg/dL,8.4,10.3,2.1956,2.1955999999999998,mmol/L,2.1,2.57,NORMAL,NA,13,WEEK 26,182,2014-07-02T11:45,182
CDISCPILOT01,LB,01-701-1015,10,CHOL,Cholesterol,CHEMISTRY,230,mg/dL,156,300,5.9478,5.9478,mmol/L,4.029999999999999,7.76,NORMAL,Y,1,SCREENING 1,-7,2013-12-26T14:45,-7
CDISCPILOT01,LB,01-701-1015,47,CHOL,Cholesterol,CHEMISTRY,212,mg/dL,156,300,5.48232,5.48232,mmol/L,4.029999999999999,7.76,NORMAL,NA,4,WEEK 2,14,2014-01-16T13:17,15
CDISCPILOT01,LB,01-701-1015,82,CHOL,Cholesterol,CHEMISTRY,193,mg/dL,156,300,4.99098,4.9909799999999995,mmol/L,4.029999999999999,7.76,NORMAL,NA,5,WEEK 4,28,2014-01-30T08:50,29
CDISCPILOT01,LB,01-701-1015,112,CHOL,Cholesterol,CHEMISTRY,218,mg/dL,156,300,5.63748,5.63748,mmol/L,4.029999999999999,7.76,NORMAL,NA,7,WEEK 6,42,2014-02-12T12:56,42
CDISCPILOT01,LB,01-701-1015,142,CHOL,Cholesterol,CHEMISTRY,214,mg/dL,156,300,5.53404,5.53404,mmol/L,4.029999999999999,7.76,NORMAL,NA,8,WEEK 8,56,2014-03-05T12:25,63
CDISCPILOT01,LB,01-701-1015,172,CHOL,Cholesterol,CHEMISTRY,218,mg/dL,156,300,5.63748,5.63748,mmol/L,4.029999999999999,7.76,NORMAL,NA,9,WEEK 12,84,2014-03-26T15:15,84
CDISCPILOT01,LB,01-701-1015,207,CHOL,Cholesterol,CHEMISTRY,213,mg/dL,156,300,5.50818,5.508179999999999,mmol/L,4.029999999999999,7.76,NORMAL,NA,10,WEEK 16,112,2014-05-07T11:21,126
CDISCPILOT01,LB,01-701-1015,237,CHOL,Cholesterol,CHEMISTRY,207,mg/dL,156,300,5.35302,5.35302,mmol/L,4.029999999999999,7.76,NORMAL,NA,11,WEEK 20,140,2014-05-21T10:58,140
CDISCPILOT01,LB,01-701-1015,267,CHOL,Cholesterol,CHEMISTRY,201,mg/dL,156,300,5.19786,5.1978599999999995,mmol/L,4.029999999999999,7.76,NORMAL,NA,12,WEEK 24,168,2014-06-18T13:00,168
CDISCPILOT01,LB,01-701-1015,302,CHOL,Cholesterol,CHEMISTRY,214,mg/dL,156,300,5.53404,5.53404,mmol/L,4.029999999999999,7.76,NORMAL,NA,13,WEEK 26,182,2014-07-02T11:45,182
CDISCPILOT01,LB,01-701-1015,11,CK,Creatine Kinase,CHEMISTRY,70,U/L,21,169,70,70,U/L,21,169,NORMAL,Y,1,SCREENING 1,-7,2013-12-26T14:45,-7
CDISCPILOT01,LB,01-701-1015,48,CK,Creatine Kinase,CHEMISTRY,54,U/L,21,169,54,54,U/L,21,169,NORMAL,NA,4,WEEK 2,14,2014-01-16T13:17,15
CDISCPILOT01,LB,01-701-1015,83,CK,Creatine Kinase,CHEMISTRY,45,U/L,21,169,45,45,U/L,21,169,NORMAL,NA,5,WEEK 4,28,2014-01-30T08:50,29
CDISCPILOT01,LB,01-701-1015,113,CK,Creatine Kinase,CHEMISTRY,64,U/L,21,169,64,64,U/L,21,169,NORMAL,NA,7,WEEK 6,42,2014-02-12T12:56,42
CDISCPILOT01,LB,01-701-1015,143,CK,Creatine Kinase,CHEMISTRY,49,U/L,21,169,49,49,U/L,21,169,NORMAL,NA,8,WEEK 8,56,2014-03-05T12:25,63
CDISCPILOT01,LB,01-701-1015,173,CK,Creatine Kinase,CHEMISTRY,56,U/L,21,169,56,56,U/L,21,169,NORMAL,NA,9,WEEK 12,84,2014-03-26T15:15,84
CDISCPILOT01,LB,01-701-1015,208,CK,Creatine Kinase,CHEMISTRY,50,U/L,21,169,50,50,U/L,21,169,NORMAL,NA,10,WEEK 16,112,2014-05-07T11:21,126
CDISCPILOT01,LB,01-701-1015,238,CK,Creatine Kinase,CHEMISTRY,50,U/L,21,169,50,50,U/L,21,169,NORMAL,NA,11,WEEK 20,140,2014-05-21T10:58,140
CDISCPILOT01,LB,01-701-1015,268,CK,Creatine Kinase,CHEMISTRY,42,U/L,21,169,42,42,U/L,21,169,NORMAL,NA,12,WEEK 24,168,2014-06-18T13:00,168
CDISCPILOT01,LB,01-701-1015,303,CK,Creatine Kinase,CHEMISTRY,44,U/L,21,169,44,44,U/L,21,169,NORMAL,NA,13,WEEK 26,182,2014-07-02T11:45,182
CDISCPILOT01,LB,01-701-1015,12,CL,Chloride,CHEMISTRY,106,mEq/L,94,112,106,106,mmol/L,94,112,NORMAL,Y,1,SCREENING 1,-7,2013-12-26T14:45,-7
