STUDYID,USUBJID,SUBJID,RFSTDTC,RFENDTC,RFXSTDTC,RFXENDTC,RFICDTC,RFPENDTC,DTHDTC,DTHFL,SITEID,AGE,AGEU,SEX,RACE,ETHNIC,ARMCD,ARM,ACTARMCD,ACTARM,COUNTRY,DMDTC,DMDY,TRT01P,TRT01A,TRTSDTM,TRTSTMF,TRTEDTM,TRTETMF,TRTSDT,TRTEDT,TRTDURD,SCRFDT,EOSDT,EOSSTT,FRVDT,RANDDT,DTHDT,DTHDTF,DTHADY,LDDTHELD,DTHCAUS,DTHDOM,DTHCGR1,LSTALVDT,SAFFL,RACEGR1,AGEGR1,REGION1,LDDTHGR1,DTH30FL,DTHA30FL,DTHB30FL
CDISCPILOT01,01-701-1015,1015,2014-01-02,2014-07-02,2014-01-02,2014-07-02,NA,2014-07-02T11:45,NA,NA,701,63,YEARS,F,WHITE,HISPANIC OR LATINO,Pbo,Placebo,Pbo,Placebo,USA,2013-12-26,-7,Placebo,Placebo,2014-01-02T00:00:00Z,H,2014-07-02T23:59:59Z,H,2014-01-02,2014-07-02,182,NA,2014-07-02,COMPLETED,NA,2014-01-02,NA,NA,NA,NA,NA,NA,NA,2014-07-02,Y,White,18-64,NA,NA,NA,NA,NA
CDISCPILOT01,01-701-1023,1023,2012-08-05,2012-09-02,2012-08-05,2012-09-01,NA,2013-02-18,NA,NA,701,64,YEARS,M,WHITE,HISPANIC OR LATINO,Pbo,Placebo,Pbo,Placebo,USA,2012-07-22,-14,Placebo,Placebo,2012-08-05T00:00:00Z,H,2012-09-01T23:59:59Z,H,2012-08-05,2012-09-01,28,NA,2012-09-02,DISCONTINUED,2013-02-18,2012-08-05,NA,NA,NA,NA,NA,NA,NA,2012-09-02,Y,White,18-64,NA,NA,NA,NA,NA
CDISCPILOT01,01-701-1028,1028,2013-07-19,2014-01-14,2013-07-19,2014-01-14,NA,2014-01-14T11:10,NA,NA,701,71,YEARS,M,WHITE,NOT HISPANIC OR LATINO,Xan_Hi,Xanomeline High Dose,Xan_Hi,Xanomeline High Dose,USA,2013-07-11,-8,Xanomeline High Dose,Xanomeline High Dose,2013-07-19T00:00:00Z,H,2014-01-14T23:59:59Z,H,2013-07-19,2014-01-14,180,NA,2014-01-14,COMPLETED,NA,2013-07-19,NA,NA,NA,NA,NA,NA,NA,2014-01-14,Y,White,>64,NA,NA,NA,NA,NA
CDISCPILOT01,01-701-1033,1033,2014-03-18,2014-04-14,2014-03-18,2014-03-31,NA,2014-09-15,NA,NA,701,74,YEARS,M,WHITE,NOT HISPANIC OR LATINO,Xan_Lo,Xanomeline Low Dose,Xan_Lo,Xanomeline Low Dose,USA,2014-03-10,-8,Xanomeline Low Dose,Xanomeline Low Dose,2014-03-18T00:00:00Z,H,2014-03-31T23:59:59Z,H,2014-03-18,2014-03-31,14,NA,2014-04-14,DISCONTINUED,2014-09-15,2014-03-18,NA,NA,NA,NA,NA,NA,NA,2014-04-14,Y,White,>64,NA,NA,NA,NA,NA
CDISCPILOT01,01-701-1034,1034,2014-07-01,2014-12-30,2014-07-01,2014-12-30,NA,2014-12-30T09:50,NA,NA,701,77,YEARS,F,WHITE,NOT HISPANIC OR LATINO,Xan_Hi,Xanomeline High Dose,Xan_Hi,Xanomeline High Dose,USA,2014-06-24,-7,Xanomeline High Dose,Xanomeline High Dose,2014-07-01T00:00:00Z,H,2014-12-30T23:59:59Z,H,2014-07-01,2014-12-30,183,NA,2014-12-30,COMPLETED,NA,2014-07-01,NA,NA,NA,NA,NA,NA,NA,2014-12-30,Y,White,>64,NA,NA,NA,NA,NA
CDISCPILOT01,01-701-1047,1047,2013-02-12,2013-03-29,2013-02-12,2013-03-09,NA,2013-07-28,NA,NA,701,85,YEARS,F,WHITE,NOT HISPANIC OR LATINO,Pbo,Placebo,Pbo,Placebo,USA,2013-01-22,-21,Placebo,Placebo,2013-02-12T00:00:00Z,H,2013-03-09T23:59:59Z,H,2013-02-12,2013-03-09,26,NA,2013-03-29,DISCONTINUED,2013-07-28,2013-02-12,NA,NA,NA,NA,NA,NA,NA,2013-04-07,Y,White,>64,NA,NA,NA,NA,NA
CDISCPILOT01,01-701-1057,1057,NA,NA,NA,NA,NA,2013-12-27,NA,NA,701,59,YEARS,F,WHITE,HISPANIC OR LATINO,Scrnfail,Screen Failure,Scrnfail,Screen Failure,USA,2013-12-20,NA,Screen Failure,Screen Failure,NA,NA,NA,NA,NA,NA,NA,2013-12-20,NA,NA,NA,NA,NA,NA,NA,NA,NA,NA,NA,NA,NA,White,18-64,NA,NA,NA,NA,NA
CDISCPILOT01,01-701-1097,1097,2014-01-01,2014-07-09,2014-01-01,2014-07-09,NA,2014-07-09T09:39,NA,NA,701,68,YEARS,M,WHITE,NOT HISPANIC OR LATINO,Xan_Lo,Xanomeline Low Dose,Xan_Lo,Xanomeline Low Dose,USA,2013-12-23,-9,Xanomeline Low Dose,Xanomeline Low Dose,2014-01-01T00:00:00Z,H,2014-07-09T23:59:59Z,H,2014-01-01,2014-07-09,190,NA,2014-07-09,COMPLETED,NA,2014-01-01,NA,NA,NA,NA,NA,NA,NA,2014-07-09,Y,White,>64,NA,NA,NA,NA,NA
CDISCPILOT01,01-701-1111,1111,2012-09-07,2012-09-17,2012-09-07,2012-09-16,NA,2013-02-22,NA,NA,701,81,YEARS,F,WHITE,NOT HISPANIC OR LATINO,Xan_Lo,Xanomeline Low Dose,Xan_Lo,Xanomeline Low Dose,USA,2012-08-25,-13,Xanomeline Low Dose,Xanomeline Low Dose,2012-09-07T00:00:00Z,H,2012-09-16T23:59:59Z,H,2012-09-07,2012-09-16,10,NA,2012-09-17,DISCONTINUED,2013-02-22,2012-09-07,NA,NA,NA,NA,NA,NA,NA,2012-09-17,Y,White,>64,NA,NA,NA,NA,NA
CDISCPILOT01,01-701-1115,1115,2012-11-30,2013-01-23,2012-11-30,2013-01-23,NA,2013-05-20,NA,NA,701,84,YEARS,M,WHITE,NOT HISPANIC OR LATINO,Xan_Lo,Xanomeline Low Dose,Xan_Lo,Xanomeline Low Dose,USA,2012-11-23,-7,Xanomeline Low Dose,Xanomeline Low Dose,2012-11-30T00:00:00Z,H,2013-01-23T23:59:59Z,H,2012-11-30,2013-01-23,55,NA,2013-01-23,DISCONTINUED,2013-05-20,2012-11-30,NA,NA,NA,NA,NA,NA,NA,2013-01-23,Y,White,>64,NA,NA,NA,NA,NA
CDISCPILOT01,01-701-1118,1118,2014-03-12,2014-09-09,2014-03-12,2014-09-09,NA,2014-09-09T13:28,NA,NA,701,52,YEARS,M,WHITE,NOT HISPANIC OR LATINO,Pbo,Placebo,Pbo,Placebo,USA,2014-02-27,-13,Placebo,Placebo,2014-03-12T00:00:00Z,H,2014-09-09T23:59:59Z,H,2014-03-12,2014-09-09,182,NA,2014-09-09,COMPLETED,NA,2014-03-12,NA,NA,NA,NA,NA,NA,NA,2014-09-09,Y,White,18-64,NA,NA,NA,NA,NA
CDISCPILOT01,01-701-1130,1130,2014-02-15,2014-08-16,2014-02-15,2014-08-16,NA,2014-08-16T13:10,NA,NA,701,84,YEARS,M,WHITE,NOT HISPANIC OR LATINO,Pbo,Placebo,Pbo,Placebo,USA,2014-02-09,-6,Placebo,Placebo,2014-02-15T00:00:00Z,H,2014-08-16T23:59:59Z,H,2014-02-15,2014-08-16,183,NA,2014-08-16,COMPLETED,NA,2014-02-15,NA,NA,NA,NA,NA,NA,NA,2014-08-16,Y,White,>64,NA,NA,NA,NA,NA
CDISCPILOT01,01-701-1133,1133,2012-10-28,2013-04-29,2012-10-28,2013-04-28,NA,2013-04-29T10:13,NA,NA,701,81,YEARS,F,WHITE,NOT HISPANIC OR LATINO,Xan_Hi,Xanomeline High Dose,Xan_Hi,Xanomeline High Dose,USA,2012-10-23,-5,Xanomeline High Dose,Xanomeline High Dose,2012-10-28T00:00:00Z,H,2013-04-28T23:59:59Z,H,2012-10-28,2013-04-28,183,NA,2013-04-29,COMPLETED,NA,2012-10-28,NA,NA,NA,NA,NA,NA,NA,2013-04-29,Y,White,>64,NA,NA,NA,NA,NA
CDISCPILOT01,01-701-1145,1145,NA,NA,NA,NA,NA,2013-09-19,NA,NA,701,57,YEARS,F,WHITE,NOT HISPANIC OR LATINO,Scrnfail,Screen Failure,Scrnfail,Screen Failure,USA,2013-09-05,NA,Screen Failure,Screen Failure,NA,NA,NA,NA,NA,NA,NA,2013-09-05,NA,NA,NA,NA,NA,NA,NA,NA,NA,NA,NA,NA,NA,White,18-64,NA,NA,NA,NA,NA
CDISCPILOT01,01-701-1146,1146,2013-05-20,2013-06-30,2013-05-20,2013-06-26,NA,2013-07-15,NA,NA,701,75,YEARS,F,WHITE,NOT HISPANIC OR LATINO,Xan_Hi,Xanomeline High Dose,Xan_Hi,Xanomeline High Dose,USA,2013-05-07,-13,Xanomeline High Dose,Xanomeline High Dose,2013-05-20T00:00:00Z,H,2013-06-26T23:59:59Z,H,2013-05-20,2013-06-26,38,NA,2013-06-30,DISCONTINUED,NA,2013-05-20,NA,NA,NA,NA,NA,NA,NA,2013-06-30,Y,White,>64,NA,NA,NA,NA,NA
CDISCPILOT01,01-701-1148,1148,2013-08-23,2014-02-20,2013-08-23,2014-02-20,NA,2014-02-20T15:07,NA,NA,701,57,YEARS,M,WHITE,NOT HISPANIC OR LATINO,Xan_Hi,Xanomeline High Dose,Xan_Hi,Xanomeline High Dose,USA,2013-08-14,-9,Xanomeline High Dose,Xanomeline High Dose,2013-08-23T00:00:00Z,H,2014-02-20T23:59:59Z,H,2013-08-23,2014-02-20,182,NA,2014-02-20,COMPLETED,NA,2013-08-23,NA,NA,NA,NA,NA,NA,NA,2014-02-20,Y,White,18-64,NA,NA,NA,NA,NA
CDISCPILOT01,01-701-1153,1153,2013-09-23,2014-04-01,2013-09-23,2014-03-16,NA,2014-04-01T14:25,NA,NA,701,79,YEARS,F,WHITE,NOT HISPANIC OR LATINO,Pbo,Placebo,Pbo,Placebo,USA,2013-09-06,-17,Placebo,Placebo,2013-09-23T00:00:00Z,H,2014-03-16T23:59:59Z,H,2013-09-23,2014-03-16,175,NA,2014-04-01,COMPLETED,NA,2013-09-23,NA,NA,NA,NA,NA,NA,NA,2014-04-01,Y,White,>64,NA,NA,NA,NA,NA
CDISCPILOT01,01-701-1162,1162,NA,NA,NA,NA,NA,2013-04-18,NA,NA,701,82,YEARS,F,WHITE,NOT HISPANIC OR LATINO,Scrnfail,Screen Failure,Scrnfail,Screen Failure,USA,2013-04-18,NA,Screen Failure,Screen Failure,NA,NA,NA,NA,NA,NA,NA,2013-04-18,NA,NA,NA,NA,NA,NA,NA,NA,NA,NA,NA,NA,NA,White,>64,NA,NA,NA,NA,NA
CDISCPILOT01,01-701-1176,1176,NA,NA,NA,NA,NA,2012-09-30,NA,NA,701,62,YEARS,F,AMERICAN INDIAN OR ALASKA NATIVE,NOT HISPANIC OR LATINO,Scrnfail,Screen Failure,Scrnfail,Screen Failure,USA,2012-09-30,NA,Screen Failure,Screen Failure,NA,NA,NA,NA,NA,NA,NA,2012-09-30,NA,NA,NA,NA,NA,NA,NA,NA,NA,NA,NA,NA,NA,Non-white,18-64,NA,NA,NA,NA,NA
CDISCPILOT01,01-701-1180,1180,2013-02-12,2013-03-23,2013-02-12,2013-03-18,NA,2013-04-07,NA,NA,701,56,YEARS,M,WHITE,NOT HISPANIC OR LATINO,Xan_Hi,Xanomeline High Dose,Xan_Hi,Xanomeline High Dose,USA,2013-01-28,-15,Xanomeline High Dose,Xanomeline High Dose,2013-02-12T00:00:00Z,H,2013-03-18T23:59:59Z,H,2013-02-12,2013-03-18,35,NA,2013-03-23,DISCONTINUED,NA,2013-02-12,NA,NA,NA,NA,NA,NA,NA,2013-03-23,Y,White,18-64,NA,NA,NA,NA,NA
CDISCPILOT01,01-701-1181,1181,2013-12-05,2013-12-12,2013-12-05,2013-12-09,NA,2014-05-23,NA,NA,701,79,YEARS,F,WHITE,NOT HISPANIC OR LATINO,Xan_Hi,Xanomeline High Dose,Xan_Lo,Xanomeline Low Dose,USA,2013-11-26,-9,Xanomeline High Dose,Xanomeline Low Dose,2013-12-05T00:00:00Z,H,2013-12-09T23:59:59Z,H,2013-12-05,2013-12-09,5,NA,2013-12-12,DISCONTINUED,2014-05-23,2013-12-05,NA,NA,NA,NA,NA,NA,NA,2013-12-12,Y,White,>64,NA,NA,NA,NA,NA
CDISCPILOT01,01-701-1188,1188,2013-02-15,2013-03-25,2013-02-15,2013-03-24,NA,2013-08-04,NA,NA,701,71,YEARS,M,WHITE,NOT HISPANIC OR LATINO,Xan_Lo,Xanomeline Low Dose,Xan_Lo,Xanomeline Low Dose,USA,2013-02-03,-12,Xanomeline Low Dose,Xanomeline Low Dose,2013-02-15T00:00:00Z,H,2013-03-24T23:59:59Z,H,2013-02-15,2013-03-24,38,NA,2013-03-25,DISCONTINUED,2013-08-04,2013-02-15,NA,NA,NA,NA,NA,NA,NA,2013-03-25,Y,White,>64,NA,NA,NA,NA,NA
CDISCPILOT01,01-701-1192,1192,2012-07-22,2013-01-20,2012-07-22,2013-01-20,NA,2013-01-20T15:47,NA,NA,701,80,YEARS,F,WHITE,NOT HISPANIC OR LATINO,Xan_Lo,Xanomeline Low Dose,Xan_Lo,Xanomeline Low Dose,USA,2012-07-08,-14,Xanomeline Low Dose,Xanomeline Low Dose,2012-07-22T00:00:00Z,H,2013-01-20T23:59:59Z,H,2012-07-22,2013-01-20,183,NA,2013-01-20,COMPLETED,NA,2012-07-22,NA,NA,NA,NA,NA,NA,NA,2013-01-20,Y,White,>64,NA,NA,NA,NA,NA
CDISCPILOT01,01-701-1203,1203,2013-02-02,2013-08-03,2013-02-02,2013-08-03,NA,2013-08-03T10:10,NA,NA,701,81,YEARS,F,BLACK OR AFRICAN AMERICAN,NOT HISPANIC OR LATINO,Pbo,Placebo,Pbo,Placebo,USA,2013-01-25,-8,Placebo,Placebo,2013-02-02T00:00:00Z,H,2013-08-03T23:59:59Z,H,2013-02-02,2013-08-03,183,NA,2013-08-03,COMPLETED,NA,2013-02-02,NA,NA,NA,NA,NA,NA,NA,2013-08-03,Y,Non-white,>64,NA,NA,NA,NA,NA
CDISCPILOT01,01-701-1211,1211,2012-11-15,2013-01-14,2012-11-15,2013-01-12,NA,2013-01-14,2013-01-14,Y,701,76,YEARS,F,WHITE,NOT HISPANIC OR LATINO,Xan_Lo,Xanomeline Low Dose,Xan_Lo,Xanomeline Low Dose,USA,2012-10-30,-16,Xanomeline Low Dose,Xanomeline Low Dose,2012-11-15T00:00:00Z,H,2013-01-12T23:59:59Z,H,2012-11-15,2013-01-12,59,NA,2013-01-14,DISCONTINUED,NA,2012-11-15,2013-01-14,NA,61,2,SUDDEN DEATH,AE,ADVERSE EVENT,2013-01-14,Y,White,>64,NA,<= 30,Y,NA,NA
CDISCPILOT01,01-701-1234,1234,2013-03-30,2013-09-22,2013-03-30,2013-09-22,NA,2013-09-22T09:25,NA,NA,701,69,YEARS,M,WHITE,NOT HISPANIC OR LATINO,Pbo,Placebo,Pbo,Placebo,USA,2013-03-20,-10,Placebo,Placebo,2013-03-30T00:00:00Z,H,2013-09-22T23:59:59Z,H,2013-03-30,2013-09-22,177,NA,2013-09-22,COMPLETED,NA,2013-03-30,NA,NA,NA,NA,NA,NA,NA,2013-09-22,Y,White,>64,NA,NA,NA,NA,NA
CDISCPILOT01,01-701-1239,1239,2014-01-11,2014-07-11,2014-01-11,2014-07-10,NA,2014-07-11T15:40,NA,NA,701,56,YEARS,M,WHITE,HISPANIC OR LATINO,Xan_Hi,Xanomeline High Dose,Xan_Hi,Xanomeline High Dose,USA,2013-12-28,-14,Xanomeline High Dose,Xanomeline High Dose,2014-01-11T00:00:00Z,H,2014-07-10T23:59:59Z,H,2014-01-11,2014-07-10,181,NA,2014-07-11,COMPLETED,NA,2014-01-11,NA,NA,NA,NA,NA,NA,NA,2014-07-11,Y,White,18-64,NA,NA,NA,NA,NA
CDISCPILOT01,01-701-1240,1240,NA,NA,NA,NA,NA,2013-09-24,NA,NA,701,57,YEARS,F,BLACK OR AFRICAN AMERICAN,NOT HISPANIC OR LATINO,Scrnfail,Screen Failure,Scrnfail,Screen Failure,USA,2013-09-22,NA,Screen Failure,Screen Failure,NA,NA,NA,NA,NA,NA,NA,2013-09-22,NA,NA,NA,NA,NA,NA,NA,NA,NA,NA,NA,NA,NA,Non-white,18-64,NA,NA,NA,NA,NA
CDISCPILOT01,01-701-1275,1275,2014-02-07,2014-06-14,2014-02-07,2014-05-31,NA,2014-06-14T12:35,NA,NA,701,61,YEARS,M,AMERICAN INDIAN OR ALASKA NATIVE,NOT HISPANIC OR LATINO,Xan_Hi,Xanomeline High Dose,Xan_Hi,Xanomeline High Dose,USA,2014-01-25,-13,Xanomeline High Dose,Xanomeline High Dose,2014-02-07T00:00:00Z,H,2014-05-31T23:59:59Z,H,2014-02-07,2014-05-31,114,NA,2014-06-14,DISCONTINUED,NA,2014-02-07,NA,NA,NA,NA,NA,NA,NA,2014-06-14,Y,Non-white,18-64,NA,NA,NA,NA,NA
CDISCPILOT01,01-701-1287,1287,2014-01-25,2014-07-26,2014-01-25,2014-07-26,NA,2014-07-26T13:15,NA,NA,701,56,YEARS,F,WHITE,HISPANIC OR LATINO,Xan_Hi,Xanomeline High Dose,Xan_Hi,Xanomeline High Dose,USA,2014-01-17,-8,Xanomeline High Dose,Xanomeline High Dose,2014-01-25T00:00:00Z,H,2014-07-26T23:59:59Z,H,2014-01-25,2014-07-26,183,NA,2014-07-26,COMPLETED,NA,2014-01-25,NA,NA,NA,NA,NA,NA,NA,2014-07-26,Y,White,18-64,NA,NA,NA,NA,NA
CDISCPILOT01,01-701-1294,1294,2013-03-24,2013-06-14,2013-03-24,2013-06-14,NA,2013-10-08,NA,NA,701,67,YEARS,M,WHITE,NOT HISPANIC OR LATINO,Xan_Lo,Xanomeline Low Dose,Xan_Lo,Xanomeline Low Dose,USA,2013-03-17,-7,Xanomeline Low Dose,Xanomeline Low Dose,2013-03-24T00:00:00Z,H,2013-06-14T23:59:59Z,H,2013-03-24,2013-06-14,83,NA,2013-06-14,DISCONTINUED,2013-10-08,2013-03-24,NA,NA,NA,NA,NA,NA,NA,2013-06-14,Y,White,>64,NA,NA,NA,NA,NA
CDISCPILOT01,01-701-1302,1302,2013-08-29,2013-11-05,2013-08-29,2013-11-05,NA,2014-02-13,NA,NA,701,61,YEARS,M,WHITE,NOT HISPANIC OR LATINO,Xan_Hi,Xanomeline High Dose,Xan_Hi,Xanomeline High Dose,USA,2013-08-20,-9,Xanomeline High Dose,Xanomeline High Dose,2013-08-29T00:00:00Z,H,2013-11-05T23:59:59Z,H,2013-08-29,2013-11-05,69,NA,2013-11-05,DISCONTINUED,2014-02-13,2013-08-29,NA,NA,NA,NA,NA,NA,NA,2013-11-05,Y,White,18-64,NA,NA,NA,NA,NA
CDISCPILOT01,01-701-1307,1307,NA,NA,NA,NA,NA,2014-01-02,NA,NA,701,80,YEARS,F,WHITE,NOT HISPANIC OR LATINO,Scrnfail,Screen Failure,Scrnfail,Screen Failure,USA,2013-12-08,NA,Screen Failure,Screen Failure,NA,NA,NA,NA,NA,NA,NA,2013-12-08,NA,NA,NA,NA,NA,NA,NA,NA,NA,NA,NA,NA,NA,White,>64,NA,NA,NA,NA,NA
CDISCPILOT01,01-701-1317,1317,2014-05-22,2014-11-20,2014-05-22,2014-11-20,NA,2014-11-20T11:54,NA,NA,701,68,YEARS,M,WHITE,NOT HISPANIC OR LATINO,Xan_Lo,Xanomeline Low Dose,Xan_Lo,Xanomeline Low Dose,USA,2014-05-10,-12,Xanomeline Low Dose,Xanomeline Low Dose,2014-05-22T00:00:00Z,H,2014-11-20T23:59:59Z,H,2014-05-22,2014-11-20,183,NA,2014-11-20,COMPLETED,NA,2014-05-22,NA,NA,NA,NA,NA,NA,NA,2014-11-20,Y,White,>64,NA,NA,NA,NA,NA
CDISCPILOT01,01-701-1324,1324,2012-10-02,2013-04-02,2012-10-02,2013-04-02,NA,2013-04-02T11:35,NA,NA,701,79,YEARS,M,WHITE,NOT HISPANIC OR LATINO,Xan_Lo,Xanomeline Low Dose,Xan_Lo,Xanomeline Low Dose,USA,2012-09-16,-16,Xanomeline Low Dose,Xanomeline Low Dose,2012-10-02T00:00:00Z,H,2013-04-02T23:59:59Z,H,2012-10-02,2013-04-02,183,NA,2013-04-02,COMPLETED,NA,2012-10-02,NA,NA,NA,NA,NA,NA,NA,2013-04-02,Y,White,>64,NA,NA,NA,NA,NA
CDISCPILOT01,01-701-1341,1341,2013-01-05,2013-02-07,2013-01-05,2013-01-26,NA,2013-02-21,NA,NA,701,51,YEARS,M,WHITE,NOT HISPANIC OR LATINO,Xan_Lo,Xanomeline Low Dose,Xan_Lo,Xanomeline Low Dose,USA,2012-12-22,-14,Xanomeline Low Dose,Xanomeline Low Dose,2013-01-05T00:00:00Z,H,2013-01-26T23:59:59Z,H,2013-01-05,2013-01-26,22,NA,2013-02-07,DISCONTINUED,NA,2013-01-05,NA,NA,NA,NA,NA,NA,NA,2013-02-07,Y,White,18-64,NA,NA,NA,NA,NA
CDISCPILOT01,01-701-1345,1345,2013-10-08,2014-03-18,2013-10-08,2014-03-18,NA,2014-03-18T14:12,NA,NA,701,63,YEARS,F,WHITE,NOT HISPANIC OR LATINO,Pbo,Placebo,Pbo,Placebo,USA,2013-10-01,-7,Placebo,Placebo,2013-10-08T00:00:00Z,H,2014-03-18T23:59:59Z,H,2013-10-08,2014-03-18,162,NA,2014-03-18,DISCONTINUED,NA,2013-10-08,NA,NA,NA,NA,NA,NA,NA,2014-03-18,Y,White,18-64,NA,NA,NA,NA,NA
CDISCPILOT01,01-701-1356,1356,NA,NA,NA,NA,NA,2014-05-28,NA,NA,701,54,YEARS,F,WHITE,HISPANIC OR LATINO,Scrnfail,Screen Failure,Scrnfail,Screen Failure,USA,2014-04-01,NA,Screen Failure,Screen Failure,NA,NA,NA,NA,NA,NA,NA,2014-04-01,NA,NA,NA,NA,NA,NA,NA,NA,NA,NA,NA,NA,NA,White,18-64,NA,NA,NA,NA,NA
CDISCPILOT01,01-701-1360,1360,2013-07-31,2013-08-14,2013-07-31,2013-08-05,NA,2014-02-11,NA,NA,701,67,YEARS,M,WHITE,NOT HISPANIC OR LATINO,Xan_Hi,Xanomeline High Dose,Xan_Lo,Xanomeline Low Dose,USA,2013-07-24,-7,Xanomeline High Dose,Xanomeline Low Dose,2013-07-31T00:00:00Z,H,2013-08-05T23:59:59Z,H,2013-07-31,2013-08-05,6,NA,2013-08-14,DISCONTINUED,2014-02-11,2013-07-31,NA,NA,NA,NA,NA,NA,NA,2013-08-14,Y,White,>64,NA,NA,NA,NA,NA
CDISCPILOT01,01-701-1363,1363,2013-05-30,2013-11-27,2013-05-30,2013-11-27,NA,2013-11-27T10:00,NA,NA,701,81,YEARS,F,BLACK OR AFRICAN AMERICAN,NOT HISPANIC OR LATINO,Pbo,Placebo,Pbo,Placebo,USA,2013-05-20,-10,Placebo,Placebo,2013-05-30T00:00:00Z,H,2013-11-27T23:59:59Z,H,2013-05-30,2013-11-27,182,NA,2013-11-27,COMPLETED,NA,2013-05-30,NA,NA,NA,NA,NA,NA,NA,2013-11-27,Y,Non-white,>64,NA,NA,NA,NA,NA
CDISCPILOT01,01-701-1369,1369,NA,NA,NA,NA,NA,2013-09-30,NA,NA,701,74,YEARS,M,WHITE,NOT HISPANIC OR LATINO,Scrnfail,Screen Failure,Scrnfail,Screen Failure,USA,2013-09-18,NA,Screen Failure,Screen Failure,NA,NA,NA,NA,NA,NA,NA,2013-09-18,NA,NA,NA,NA,NA,NA,NA,NA,NA,NA,NA,NA,NA,White,>64,NA,NA,NA,NA,NA
CDISCPILOT01,01-701-1383,1383,2013-02-04,2013-08-06,2013-02-04,2013-08-06,NA,2013-08-06T12:00,NA,NA,701,72,YEARS,F,WHITE,NOT HISPANIC OR LATINO,Xan_Hi,Xanomeline High Dose,Xan_Hi,Xanomeline High Dose,USA,2013-01-22,-13,Xanomeline High Dose,Xanomeline High Dose,2013-02-04T00:00:00Z,H,2013-08-06T23:59:59Z,H,2013-02-04,2013-08-06,184,NA,2013-08-06,COMPLETED,NA,2013-02-04,NA,NA,NA,NA,NA,NA,NA,2013-08-06,Y,White,>64,NA,NA,NA,NA,NA
CDISCPILOT01,01-701-1386,1386,NA,NA,NA,NA,NA,2014-01-07,NA,NA,701,71,YEARS,M,WHITE,NOT HISPANIC OR LATINO,Scrnfail,Screen Failure,Scrnfail,Screen Failure,USA,2013-12-28,NA,Screen Failure,Screen Failure,NA,NA,NA,NA,NA,NA,NA,2013-12-28,NA,NA,NA,NA,NA,NA,NA,NA,NA,NA,NA,NA,NA,White,>64,NA,NA,NA,NA,NA
CDISCPILOT01,01-701-1387,1387,2014-03-12,2014-03-25,2014-03-12,2014-03-25,NA,2014-08-27,NA,NA,701,87,YEARS,F,WHITE,NOT HISPANIC OR LATINO,Pbo,Placebo,Pbo,Placebo,USA,2014-02-23,-17,Placebo,Placebo,2014-03-12T00:00:00Z,H,2014-03-25T23:59:59Z,H,2014-03-12,2014-03-25,14,NA,2014-03-25,DISCONTINUED,2014-08-27,2014-03-12,NA,NA,NA,NA,NA,NA,NA,2014-03-25,Y,White,>64,NA,NA,NA,NA,NA
CDISCPILOT01,01-701-1392,1392,2012-10-28,2013-04-28,2012-10-28,2013-04-28,NA,2013-04-28T11:30,NA,NA,701,78,YEARS,M,WHITE,NOT HISPANIC OR LATINO,Pbo,Placebo,Pbo,Placebo,USA,2012-10-17,-11,Placebo,Placebo,2012-10-28T00:00:00Z,H,2013-04-28T23:59:59Z,H,2012-10-28,2013-04-28,183,NA,2013-04-28,COMPLETED,NA,2012-10-28,NA,NA,NA,NA,NA,NA,NA,2013-04-28,Y,White,>64,NA,NA,NA,NA,NA
CDISCPILOT01,01-701-1411,1411,NA,NA,NA,NA,NA,2012-11-24,NA,NA,701,76,YEARS,M,BLACK OR AFRICAN AMERICAN,NOT HISPANIC OR LATINO,Scrnfail,Screen Failure,Scrnfail,Screen Failure,USA,2012-11-14,NA,Screen Failure,Screen Failure,NA,NA,NA,NA,NA,NA,NA,2012-11-14,NA,NA,NA,NA,NA,NA,NA,NA,NA,NA,NA,NA,NA,Non-white,>64,NA,NA,NA,NA,NA
CDISCPILOT01,01-701-1415,1415,2013-09-23,2014-03-24,2013-09-23,2014-03-24,NA,2014-03-24T12:34,NA,NA,701,85,YEARS,M,WHITE,NOT HISPANIC OR LATINO,Pbo,Placebo,Pbo,Placebo,USA,2013-09-15,-8,Placebo,Placebo,2013-09-23T00:00:00Z,H,2014-03-24T23:59:59Z,H,2013-09-23,2014-03-24,183,NA,2014-03-24,COMPLETED,NA,2013-09-23,NA,NA,NA,NA,NA,NA,NA,2014-03-24,Y,White,>64,NA,NA,NA,NA,NA
CDISCPILOT01,01-701-1429,1429,2013-03-19,2013-04-30,2013-03-19,2013-04-30,NA,2013-04-30T12:22,NA,NA,701,84,YEARS,F,WHITE,NOT HISPANIC OR LATINO,Xan_Lo,Xanomeline Low Dose,Xan_Lo,Xanomeline Low Dose,USA,2013-02-25,-22,Xanomeline Low Dose,Xanomeline Low Dose,2013-03-19T00:00:00Z,H,2013-04-30T23:59:59Z,H,2013-03-19,2013-04-30,43,NA,2013-04-30,DISCONTINUED,NA,2013-03-19,NA,NA,NA,NA,NA,NA,NA,2013-04-30,Y,White,>64,NA,NA,NA,NA,NA
CDISCPILOT01,01-701-1440,1440,2013-08-08,2014-02-05,2013-08-08,2014-02-05,NA,2014-02-05T11:25,NA,NA,701,70,YEARS,M,WHITE,NOT HISPANIC OR LATINO,Pbo,Placebo,Pbo,Placebo,USA,2013-07-24,-15,Placebo,Placebo,2013-08-08T00:00:00Z,H,2014-02-05T23:59:59Z,H,2013-08-08,2014-02-05,182,NA,2014-02-05,COMPLETED,NA,2013-08-08,NA,NA,NA,NA,NA,NA,NA,2014-02-05,Y,White,>64,NA,NA,NA,NA,NA
CDISCPILOT01,01-701-1442,1442,2013-10-26,2014-04-26,2013-10-26,2014-04-26,NA,2014-04-26T10:00,NA,NA,701,57,YEARS,F,BLACK OR AFRICAN AMERICAN,NOT HISPANIC OR LATINO,Xan_Lo,Xanomeline Low Dose,Xan_Lo,Xanomeline Low Dose,USA,2013-10-17,-9,Xanomeline Low Dose,Xanomeline Low Dose,2013-10-26T00:00:00Z,H,2014-04-26T23:59:59Z,H,2013-10-26,2014-04-26,183,NA,2014-04-26,COMPLETED,NA,2013-10-26,NA,NA,NA,NA,NA,NA,NA,2014-04-26,Y,Non-white,18-64,NA,NA,NA,NA,NA
CDISCPILOT01,01-701-1444,1444,2013-01-05,2013-02-13,2013-01-05,2013-02-12,NA,2013-06-20,NA,NA,701,63,YEARS,M,WHITE,HISPANIC OR LATINO,Xan_Hi,Xanomeline High Dose,Xan_Hi,Xanomeline High Dose,USA,2012-12-31,-5,Xanomeline High Dose,Xanomeline High Dose,2013-01-05T00:00:00Z,H,2013-02-12T23:59:59Z,H,2013-01-05,2013-02-12,39,NA,2013-02-13,DISCONTINUED,2013-06-20,2013-01-05,NA,NA,NA,NA,NA,NA,NA,2013-02-13,Y,White,18-64,NA,NA,NA,NA,NA
CDISCPILOT01,01-702-1082,1082,2013-07-26,2013-11-17,2013-07-26,2013-10-13,NA,2013-11-17T12:20,NA,NA,702,84,YEARS,F,WHITE,NOT HISPANIC OR LATINO,Xan_Lo,Xanomeline Low Dose,Xan_Lo,Xanomeline Low Dose,USA,2013-07-03,-23,Xanomeline Low Dose,Xanomeline Low Dose,2013-07-26T00:00:00Z,H,2013-10-13T23:59:59Z,H,2013-07-26,2013-10-13,80,NA,2013-11-17,DISCONTINUED,NA,2013-07-26,NA,NA,NA,NA,NA,NA,NA,2013-11-17,Y,White,>64,NA,NA,NA,NA,NA
CDISCPILOT01,01-703-1042,1042,2013-03-02,2013-08-31,2013-03-02,2013-08-31,NA,2013-08-31T11:00,NA,NA,703,64,YEARS,M,WHITE,NOT HISPANIC OR LATINO,Pbo,Placebo,Pbo,Placebo,USA,2013-02-23,-7,Placebo,Placebo,2013-03-02T00:00:00Z,H,2013-08-31T23:59:59Z,H,2013-03-02,2013-08-31,183,NA,2013-08-31,COMPLETED,NA,2013-03-02,NA,NA,NA,NA,NA,NA,NA,2013-08-31,Y,White,18-64,NA,NA,NA,NA,NA
CDISCPILOT01,01-703-1076,1076,2013-10-25,2013-12-24,2013-10-25,2013-12-24,NA,2014-01-21,NA,NA,703,69,YEARS,M,WHITE,NOT HISPANIC OR LATINO,Xan_Hi,Xanomeline High Dose,Xan_Hi,Xanomeline High Dose,USA,2013-10-17,-8,Xanomeline High Dose,Xanomeline High Dose,2013-10-25T00:00:00Z,H,2013-12-24T23:59:59Z,H,2013-10-25,2013-12-24,61,NA,2013-12-24,DISCONTINUED,NA,2013-10-25,NA,NA,NA,NA,NA,NA,NA,2013-12-24,Y,White,>64,NA,NA,NA,NA,NA
CDISCPILOT01,01-703-1086,1086,2012-09-02,2012-12-24,2012-09-02,2012-12-04,NA,2013-03-26,NA,NA,703,71,YEARS,M,WHITE,NOT HISPANIC OR LATINO,Xan_Lo,Xanomeline Low Dose,Xan_Lo,Xanomeline Low Dose,USA,2012-08-22,-11,Xanomeline Low Dose,Xanomeline Low Dose,2012-09-02T00:00:00Z,H,2012-12-04T23:59:59Z,H,2012-09-02,2012-12-04,94,NA,2012-12-24,DISCONTINUED,2013-03-26,2012-09-02,NA,NA,NA,NA,NA,NA,NA,2013-01-02,Y,White,>64,NA,NA,NA,NA,NA
CDISCPILOT01,01-703-1096,1096,2013-01-25,2013-03-29,2013-01-25,2013-03-16,NA,2013-03-29,NA,NA,703,81,YEARS,F,WHITE,NOT HISPANIC OR LATINO,Pbo,Placebo,Pbo,Placebo,USA,2012-12-19,-37,Placebo,Placebo,2013-01-25T00:00:00Z,H,2013-03-16T23:59:59Z,H,2013-01-25,2013-03-16,51,NA,2013-03-29,DISCONTINUED,NA,2013-01-25,NA,NA,NA,NA,NA,NA,NA,2013-03-16,Y,White,>64,NA,NA,NA,NA,NA
CDISCPILOT01,01-703-1100,1100,2013-03-13,2013-09-14,2013-03-13,2013-09-14,NA,2013-09-14T15:00,NA,NA,703,84,YEARS,F,WHITE,NOT HISPANIC OR LATINO,Pbo,Placebo,Pbo,Placebo,USA,2013-02-28,-13,Placebo,Placebo,2013-03-13T00:00:00Z,H,2013-09-14T23:59:59Z,H,2013-03-13,2013-09-14,186,NA,2013-09-14,COMPLETED,NA,2013-03-13,NA,NA,NA,NA,NA,NA,NA,2013-09-14,Y,White,>64,NA,NA,NA,NA,NA
CDISCPILOT01,01-703-1119,1119,2013-02-20,2013-06-13,2013-02-20,2013-06-13,NA,2013-08-24,NA,NA,703,81,YEARS,F,WHITE,NOT HISPANIC OR LATINO,Xan_Lo,Xanomeline Low Dose,Xan_Lo,Xanomeline Low Dose,USA,2013-02-02,-18,Xanomeline Low Dose,Xanomeline Low Dose,2013-02-20T00:00:00Z,H,2013-06-13T23:59:59Z,H,2013-02-20,2013-06-13,114,NA,2013-06-13,DISCONTINUED,2013-08-24,2013-02-20,NA,NA,NA,NA,NA,NA,NA,2013-06-13,Y,White,>64,NA,NA,NA,NA,NA
CDISCPILOT01,01-703-1175,1175,2013-12-20,2013-12-31,2013-12-20,2013-12-26,NA,2013-12-31T13:15,NA,NA,703,75,YEARS,M,WHITE,NOT HISPANIC OR LATINO,Pbo,Placebo,Pbo,Placebo,USA,2013-12-13,-7,Placebo,Placebo,2013-12-20T00:00:00Z,H,2013-12-26T23:59:59Z,H,2013-12-20,2013-12-26,7,NA,2013-12-31,DISCONTINUED,NA,2013-12-20,NA,NA,NA,NA,NA,NA,NA,2013-12-31,Y,White,>64,NA,NA,NA,NA,NA
CDISCPILOT01,01-703-1182,1182,2013-10-17,2013-12-12,2013-10-17,2013-12-11,NA,2014-01-14,NA,NA,703,84,YEARS,M,WHITE,NOT HISPANIC OR LATINO,Xan_Lo,Xanomeline Low Dose,Xan_Lo,Xanomeline Low Dose,USA,2013-10-08,-9,Xanomeline Low Dose,Xanomeline Low Dose,2013-10-17T00:00:00Z,H,2013-12-11T23:59:59Z,H,2013-10-17,2013-12-11,56,NA,2013-12-12,DISCONTINUED,NA,2013-10-17,NA,NA,NA,NA,NA,NA,NA,2013-12-12,Y,White,>64,NA,NA,NA,NA,NA
CDISCPILOT01,01-703-1197,1197,2013-06-16,2013-07-22,2013-06-16,2013-06-29,NA,2013-07-22,NA,NA,703,76,YEARS,F,BLACK OR AFRICAN AMERICAN,NOT HISPANIC OR LATINO,Xan_Lo,Xanomeline Low Dose,Xan_Lo,Xanomeline Low Dose,USA,2013-06-01,-15,Xanomeline Low Dose,Xanomeline Low Dose,2013-06-16T00:00:00Z,H,2013-06-29T23:59:59Z,H,2013-06-16,2013-06-29,14,NA,2013-07-22,DISCONTINUED,NA,2013-06-16,NA,NA,NA,NA,NA,NA,NA,2013-06-29,Y,Non-white,>64,NA,NA,NA,NA,NA
CDISCPILOT01,01-703-1210,1210,2013-03-16,2013-09-06,2013-03-16,2013-09-06,NA,2013-09-06T13:30,NA,NA,703,72,YEARS,F,WHITE,NOT HISPANIC OR LATINO,Pbo,Placebo,Pbo,Placebo,USA,2013-03-08,-8,Placebo,Placebo,2013-03-16T00:00:00Z,H,2013-09-06T23:59:59Z,H,2013-03-16,2013-09-06,175,NA,2013-09-06,COMPLETED,NA,2013-03-16,NA,NA,NA,NA,NA,NA,NA,2013-09-06,Y,White,>64,NA,NA,NA,NA,NA
CDISCPILOT01,01-703-1258,1258,2012-07-20,2013-01-21,2012-07-20,2013-01-11,NA,2013-01-28,NA,NA,703,78,YEARS,F,WHITE,NOT HISPANIC OR LATINO,Xan_Hi,Xanomeline High Dose,Xan_Hi,Xanomeline High Dose,USA,2012-07-10,-10,Xanomeline High Dose,Xanomeline High Dose,2012-07-20T00:00:00Z,H,2013-01-11T23:59:59Z,H,2012-07-20,2013-01-11,176,NA,2013-01-21,DISCONTINUED,NA,2012-07-20,NA,NA,NA,NA,NA,NA,NA,2013-01-25,Y,White,>64,NA,NA,NA,NA,NA
CDISCPILOT01,01-703-1279,1279,2013-05-13,2013-06-22,2013-05-13,2013-06-03,NA,2013-06-22,NA,NA,703,72,YEARS,F,WHITE,NOT HISPANIC OR LATINO,Xan_Lo,Xanomeline Low Dose,Xan_Lo,Xanomeline Low Dose,USA,2013-04-27,-16,Xanomeline Low Dose,Xanomeline Low Dose,2013-05-13T00:00:00Z,H,2013-06-03T23:59:59Z,H,2013-05-13,2013-06-03,22,NA,2013-06-22,DISCONTINUED,NA,2013-05-13,NA,NA,NA,NA,NA,NA,NA,2013-06-03,Y,White,>64,NA,NA,NA,NA,NA
CDISCPILOT01,01-703-1295,1295,2013-11-21,2014-05-19,2013-11-21,2014-04-19,NA,2014-05-19T14:45,NA,NA,703,88,YEARS,F,WHITE,NOT HISPANIC OR LATINO,Xan_Hi,Xanomeline High Dose,Xan_Hi,Xanomeline High Dose,USA,2013-10-24,-28,Xanomeline High Dose,Xanomeline High Dose,2013-11-21T00:00:00Z,H,2014-04-19T23:59:59Z,H,2013-11-21,2014-04-19,150,NA,2014-05-19,DISCONTINUED,NA,2013-11-21,NA,NA,NA,NA,NA,NA,NA,2014-05-19,Y,White,>64,NA,NA,NA,NA,NA
CDISCPILOT01,01-703-1299,1299,2012-09-12,2013-03-13,2012-09-12,2013-03-13,NA,2013-03-27,NA,NA,703,81,YEARS,F,WHITE,NOT HISPANIC OR LATINO,Pbo,Placebo,Pbo,Placebo,USA,2012-09-07,-5,Placebo,Placebo,2012-09-12T00:00:00Z,H,2013-03-13T23:59:59Z,H,2012-09-12,2013-03-13,183,NA,2013-03-13,COMPLETED,NA,2012-09-12,NA,NA,NA,NA,NA,NA,NA,2013-03-13,Y,White,>64,NA,NA,NA,NA,NA
CDISCPILOT01,01-703-1335,1335,2014-03-17,2014-05-24,2014-03-17,2014-05-07,NA,2014-05-24T12:15,NA,NA,703,67,YEARS,F,BLACK OR AFRICAN AMERICAN,NOT HISPANIC OR LATINO,Xan_Hi,Xanomeline High Dose,Xan_Hi,Xanomeline High Dose,USA,2014-02-28,-17,Xanomeline High Dose,Xanomeline High Dose,2014-03-17T00:00:00Z,H,2014-05-07T23:59:59Z,H,2014-03-17,2014-05-07,52,NA,2014-05-24,DISCONTINUED,NA,2014-03-17,NA,NA,NA,NA,NA,NA,NA,2014-05-24,Y,Non-white,>64,NA,NA,NA,NA,NA
CDISCPILOT01,01-703-1379,1379,2013-09-22,2014-03-21,2013-09-22,2014-03-21,NA,2014-03-21T10:55,NA,NA,703,81,YEARS,F,BLACK OR AFRICAN AMERICAN,NOT HISPANIC OR LATINO,Xan_Lo,Xanomeline Low Dose,Xan_Lo,Xanomeline Low Dose,USA,2013-09-12,-10,Xanomeline Low Dose,Xanomeline Low Dose,2013-09-22T00:00:00Z,H,2014-03-21T23:59:59Z,H,2013-09-22,2014-03-21,181,NA,2014-03-21,COMPLETED,NA,2013-09-22,NA,NA,NA,NA,NA,NA,NA,2014-03-21,Y,Non-white,>64,NA,NA,NA,NA,NA
CDISCPILOT01,01-703-1396,1396,NA,NA,NA,NA,NA,2014-02-27,NA,NA,703,84,YEARS,M,ASIAN,NOT HISPANIC OR LATINO,Scrnfail,Screen Failure,Scrnfail,Screen Failure,USA,2014-02-09,NA,Screen Failure,Screen Failure,NA,NA,NA,NA,NA,NA,NA,2014-02-09,NA,NA,NA,NA,NA,NA,NA,NA,NA,NA,NA,NA,NA,Non-white,>64,NA,NA,NA,NA,NA
CDISCPILOT01,01-703-1403,1403,2012-12-12,2012-12-19,2012-12-12,2012-12-13,NA,2013-01-08,NA,NA,703,67,YEARS,M,WHITE,NOT HISPANIC OR LATINO,Xan_Hi,Xanomeline High Dose,Xan_Lo,Xanomeline Low Dose,USA,2012-12-05,-7,Xanomeline High Dose,Xanomeline Low Dose,2012-12-12T00:00:00Z,H,2012-12-13T23:59:59Z,H,2012-12-12,2012-12-13,2,NA,2012-12-19,DISCONTINUED,NA,2012-12-12,NA,NA,NA,NA,NA,NA,NA,2012-12-19,Y,White,>64,NA,NA,NA,NA,NA
CDISCPILOT01,01-703-1439,1439,2014-03-12,2014-09-11,2014-03-12,2014-09-11,NA,2014-09-11T12:40,NA,NA,703,76,YEARS,F,WHITE,NOT HISPANIC OR LATINO,Xan_Hi,Xanomeline High Dose,Xan_Hi,Xanomeline High Dose,USA,2014-03-04,-8,Xanomeline High Dose,Xanomeline High Dose,2014-03-12T00:00:00Z,H,2014-09-11T23:59:59Z,H,2014-03-12,2014-09-11,184,NA,2014-09-11,COMPLETED,NA,2014-03-12,NA,NA,NA,NA,NA,NA,NA,2014-09-11,Y,White,>64,NA,NA,NA,NA,NA
CDISCPILOT01,01-704-1008,1008,2013-01-13,2013-02-25,2013-01-13,2013-02-21,NA,2013-02-25T11:00,NA,NA,704,76,YEARS,F,WHITE,NOT HISPANIC OR LATINO,Xan_Hi,Xanomeline High Dose,Xan_Hi,Xanomeline High Dose,USA,2013-01-06,-7,Xanomeline High Dose,Xanomeline High Dose,2013-01-13T00:00:00Z,H,2013-02-21T23:59:59Z,H,2013-01-13,2013-02-21,40,NA,2013-02-25,DISCONTINUED,NA,2013-01-13,NA,NA,NA,NA,NA,NA,NA,2013-02-25,Y,White,>64,NA,NA,NA,NA,NA
CDISCPILOT01,01-704-1009,1009,2013-08-27,2013-10-02,2013-08-27,2013-09-25,NA,2013-10-02,NA,NA,704,83,YEARS,M,WHITE,NOT HISPANIC OR LATINO,Xan_Lo,Xanomeline Low Dose,Xan_Lo,Xanomeline Low Dose,USA,2013-08-20,-7,Xanomeline Low Dose,Xanomeline Low Dose,2013-08-27T00:00:00Z,H,2013-09-25T23:59:59Z,H,2013-08-27,2013-09-25,30,NA,2013-10-02,DISCONTINUED,NA,2013-08-27,NA,NA,NA,NA,NA,NA,NA,2013-09-27,Y,White,>64,NA,NA,NA,NA,NA
CDISCPILOT01,01-704-1010,1010,2014-02-21,2014-07-09,2014-02-21,2014-07-08,NA,2014-07-09T11:00,NA,NA,704,80,YEARS,M,WHITE,NOT HISPANIC OR LATINO,Pbo,Placebo,Pbo,Placebo,USA,2014-02-08,-13,Placebo,Placebo,2014-02-21T00:00:00Z,H,2014-07-08T23:59:59Z,H,2014-02-21,2014-07-08,138,NA,2014-07-09,DISCONTINUED,NA,2014-02-21,NA,NA,NA,NA,NA,NA,NA,2014-07-09,Y,White,>64,NA,NA,NA,NA,NA
CDISCPILOT01,01-704-1017,1017,2013-10-06,2013-11-24,2013-10-06,2013-11-18,NA,2013-12-06,NA,NA,704,77,YEARS,M,WHITE,NOT HISPANIC OR LATINO,Xan_Hi,Xanomeline High Dose,Xan_Hi,Xanomeline High Dose,USA,2013-09-20,-16,Xanomeline High Dose,Xanomeline High Dose,2013-10-06T00:00:00Z,H,2013-11-18T23:59:59Z,H,2013-10-06,2013-11-18,44,NA,2013-11-24,DISCONTINUED,NA,2013-10-06,NA,NA,NA,NA,NA,NA,NA,2013-11-22,Y,White,>64,NA,NA,NA,NA,NA
CDISCPILOT01,01-704-1025,1025,2013-09-27,2013-11-29,2013-09-27,2013-10-24,NA,2013-11-29T12:00,NA,NA,704,81,YEARS,F,WHITE,NOT HISPANIC OR LATINO,Xan_Lo,Xanomeline Low Dose,Xan_Lo,Xanomeline Low Dose,USA,2013-09-18,-9,Xanomeline Low Dose,Xanomeline Low Dose,2013-09-27T00:00:00Z,H,2013-10-24T23:59:59Z,H,2013-09-27,2013-10-24,28,NA,2013-11-29,DISCONTINUED,NA,2013-09-27,NA,NA,NA,NA,NA,NA,NA,2013-11-29,Y,White,>64,NA,NA,NA,NA,NA
CDISCPILOT01,01-704-1065,1065,2013-10-24,2013-12-24,2013-10-24,2013-12-22,NA,2014-02-17,NA,NA,704,75,YEARS,M,WHITE,NOT HISPANIC OR LATINO,Xan_Hi,Xanomeline High Dose,Xan_Hi,Xanomeline High Dose,USA,2013-10-17,-7,Xanomeline High Dose,Xanomeline High Dose,2013-10-24T00:00:00Z,H,2013-12-22T23:59:59Z,H,2013-10-24,2013-12-22,60,NA,2013-12-24,DISCONTINUED,NA,2013-10-24,NA,NA,NA,NA,NA,NA,NA,2013-12-24,Y,White,>64,NA,NA,NA,NA,NA
CDISCPILOT01,01-704-1074,1074,2014-01-22,2014-03-31,2014-01-22,2014-03-20,NA,2014-03-31T10:30,NA,NA,704,80,YEARS,F,WHITE,NOT HISPANIC OR LATINO,Xan_Hi,Xanomeline High Dose,Xan_Hi,Xanomeline High Dose,USA,2014-01-19,-3,Xanomeline High Dose,Xanomeline High Dose,2014-01-22T00:00:00Z,H,2014-03-20T23:59:59Z,H,2014-01-22,2014-03-20,58,NA,2014-03-31,DISCONTINUED,NA,2014-01-22,NA,NA,NA,NA,NA,NA,NA,2014-03-31,Y,White,>64,NA,NA,NA,NA,NA
CDISCPILOT01,01-704-1093,1093,2013-03-15,2013-06-20,2013-03-15,2013-06-17,NA,2013-12-25,NA,NA,704,79,YEARS,M,WHITE,NOT HISPANIC OR LATINO,Xan_Hi,Xanomeline High Dose,Xan_Hi,Xanomeline High Dose,USA,2013-02-22,-21,Xanomeline High Dose,Xanomeline High Dose,2013-03-15T00:00:00Z,H,2013-06-17T23:59:59Z,H,2013-03-15,2013-06-17,95,NA,2013-06-20,DISCONTINUED,2013-12-25,2013-03-15,NA,NA,NA,NA,NA,NA,NA,2013-06-20,Y,White,>64,NA,NA,NA,NA,NA
CDISCPILOT01,01-704-1114,1114,2013-01-23,2013-07-08,2013-01-23,2013-07-07,NA,2013-07-08T09:56,NA,NA,704,77,YEARS,M,WHITE,NOT HISPANIC OR LATINO,Xan_Lo,Xanomeline Low Dose,Xan_Lo,Xanomeline Low Dose,USA,2013-01-09,-14,Xanomeline Low Dose,Xanomeline Low Dose,2013-01-23T00:00:00Z,H,2013-07-07T23:59:59Z,H,2013-01-23,2013-07-07,166,NA,2013-07-08,DISCONTINUED,NA,2013-01-23,NA,NA,NA,NA,NA,NA,NA,2013-07-08,Y,White,>64,NA,NA,NA,NA,NA
CDISCPILOT01,01-704-1120,1120,2013-12-02,2014-02-03,2013-12-02,2014-02-01,NA,2014-03-10,NA,NA,704,71,YEARS,F,WHITE,NOT HISPANIC OR LATINO,Xan_Lo,Xanomeline Low Dose,Xan_Lo,Xanomeline Low Dose,USA,2013-11-18,-14,Xanomeline Low Dose,Xanomeline Low Dose,2013-12-02T00:00:00Z,H,2014-02-01T23:59:59Z,H,2013-12-02,2014-02-01,62,NA,2014-02-03,DISCONTINUED,NA,2013-12-02,NA,NA,NA,NA,NA,NA,NA,2014-02-03,Y,White,>64,NA,NA,NA,NA,NA
CDISCPILOT01,01-704-1127,1127,2013-10-02,2014-03-31,2013-10-02,2014-03-31,NA,2014-03-31T11:30,NA,NA,704,84,YEARS,F,WHITE,NOT HISPANIC OR LATINO,Pbo,Placebo,Pbo,Placebo,USA,2013-09-16,-16,Placebo,Placebo,2013-10-02T00:00:00Z,H,2014-03-31T23:59:59Z,H,2013-10-02,2014-03-31,181,NA,2014-03-31,COMPLETED,NA,2013-10-02,NA,NA,NA,NA,NA,NA,NA,2014-03-31,Y,White,>64,NA,NA,NA,NA,NA
CDISCPILOT01,01-704-1135,1135,2013-10-31,2014-05-16,2013-10-31,2014-05-16,NA,2014-05-16T09:45,NA,NA,704,74,YEARS,F,WHITE,NOT HISPANIC OR LATINO,Xan_Lo,Xanomeline Low Dose,Xan_Lo,Xanomeline Low Dose,USA,2013-10-23,-8,Xanomeline Low Dose,Xanomeline Low Dose,2013-10-31T00:00:00Z,H,2014-05-16T23:59:59Z,H,2013-10-31,2014-05-16,198,NA,2014-05-16,COMPLETED,NA,2013-10-31,NA,NA,NA,NA,NA,NA,NA,2014-05-16,Y,White,>64,NA,NA,NA,NA,NA
CDISCPILOT01,01-704-1164,1164,2012-09-19,2013-04-04,2012-09-19,2013-04-04,NA,2013-04-04,NA,NA,704,67,YEARS,F,WHITE,NOT HISPANIC OR LATINO,Pbo,Placebo,Pbo,Placebo,USA,2012-09-11,-8,Placebo,Placebo,2012-09-19T00:00:00Z,H,2013-04-04T23:59:59Z,H,2012-09-19,2013-04-04,198,NA,2013-04-04,COMPLETED,NA,2012-09-19,NA,NA,NA,NA,NA,NA,NA,2013-04-04,Y,White,>64,NA,NA,NA,NA,NA
CDISCPILOT01,01-704-1218,1218,2012-11-19,2013-05-27,2012-11-19,2013-05-27,NA,2013-05-27T11:20,NA,NA,704,81,YEARS,F,WHITE,NOT HISPANIC OR LATINO,Xan_Lo,Xanomeline Low Dose,Xan_Lo,Xanomeline Low Dose,USA,2012-11-11,-8,Xanomeline Low Dose,Xanomeline Low Dose,2012-11-19T00:00:00Z,H,2013-05-27T23:59:59Z,H,2012-11-19,2013-05-27,190,NA,2013-05-27,COMPLETED,NA,2012-11-19,NA,NA,NA,NA,NA,NA,NA,2013-05-27,Y,White,>64,NA,NA,NA,NA,NA
CDISCPILOT01,01-704-1233,1233,2013-03-21,2013-07-14,2013-03-21,2013-04-04,NA,2013-07-14,NA,NA,704,87,YEARS,F,WHITE,NOT HISPANIC OR LATINO,Pbo,Placebo,Pbo,Placebo,USA,2013-03-08,-13,Placebo,Placebo,2013-03-21T00:00:00Z,H,2013-04-04T23:59:59Z,H,2013-03-21,2013-04-04,15,NA,2013-07-14,DISCONTINUED,NA,2013-03-21,NA,NA,NA,NA,NA,NA,NA,2013-07-11,Y,White,>64,NA,NA,NA,NA,NA
CDISCPILOT01,01-704-1241,1241,2013-08-25,2013-10-31,2013-08-25,2013-10-09,NA,2014-01-22,NA,NA,704,86,YEARS,M,WHITE,NOT HISPANIC OR LATINO,Xan_Hi,Xanomeline High Dose,Xan_Hi,Xanomeline High Dose,USA,2013-08-14,-11,Xanomeline High Dose,Xanomeline High Dose,2013-08-25T00:00:00Z,H,2013-10-09T23:59:59Z,H,2013-08-25,2013-10-09,46,NA,2013-10-31,DISCONTINUED,NA,2013-08-25,NA,NA,NA,NA,NA,NA,NA,2013-10-31,Y,White,>64,NA,NA,NA,NA,NA
CDISCPILOT01,01-704-1260,1260,2012-08-30,2013-01-18,2012-08-30,2012-11-04,NA,2013-01-18,NA,NA,704,71,YEARS,F,WHITE,NOT HISPANIC OR LATINO,Pbo,Placebo,Pbo,Placebo,USA,2012-08-23,-7,Placebo,Placebo,2012-08-30T00:00:00Z,H,2012-11-04T23:59:59Z,H,2012-08-30,2012-11-04,67,NA,2013-01-18,DISCONTINUED,NA,2012-08-30,NA,NA,NA,NA,NA,NA,NA,2012-11-04,Y,White,>64,NA,NA,NA,NA,NA
CDISCPILOT01,01-704-1266,1266,2013-10-13,2013-12-06,2013-10-13,2013-12-06,NA,2014-01-03,NA,NA,704,82,YEARS,M,WHITE,NOT HISPANIC OR LATINO,Xan_Hi,Xanomeline High Dose,Xan_Hi,Xanomeline High Dose,USA,2013-10-05,-8,Xanomeline High Dose,Xanomeline High Dose,2013-10-13T00:00:00Z,H,2013-12-06T23:59:59Z,H,2013-10-13,2013-12-06,55,NA,2013-12-06,DISCONTINUED,NA,2013-10-13,NA,NA,NA,NA,NA,NA,NA,2013-12-23,Y,White,>64,NA,NA,NA,NA,NA
CDISCPILOT01,01-704-1323,1323,2013-07-08,2013-08-08,2013-07-08,2013-08-05,NA,2013-10-01,NA,NA,704,68,YEARS,F,WHITE,NOT HISPANIC OR LATINO,Xan_Lo,Xanomeline Low Dose,Xan_Lo,Xanomeline Low Dose,USA,2013-06-13,-25,Xanomeline Low Dose,Xanomeline Low Dose,2013-07-08T00:00:00Z,H,2013-08-05T23:59:59Z,H,2013-07-08,2013-08-05,29,NA,2013-08-08,DISCONTINUED,NA,2013-07-08,NA,NA,NA,NA,NA,NA,NA,2013-08-05,Y,White,>64,NA,NA,NA,NA,NA
CDISCPILOT01,01-704-1325,1325,2014-04-23,2014-08-06,2014-04-23,2014-07-04,NA,2014-08-06T13:30,NA,NA,704,81,YEARS,M,WHITE,NOT HISPANIC OR LATINO,Xan_Lo,Xanomeline Low Dose,Xan_Lo,Xanomeline Low Dose,USA,2014-04-16,-7,Xanomeline Low Dose,Xanomeline Low Dose,2014-04-23T00:00:00Z,H,2014-07-04T23:59:59Z,H,2014-04-23,2014-07-04,73,NA,2014-08-06,DISCONTINUED,NA,2014-04-23,NA,NA,NA,NA,NA,NA,NA,2014-08-06,Y,White,>64,NA,NA,NA,NA,NA
CDISCPILOT01,01-704-1332,1332,2013-12-09,2014-02-16,2013-12-09,2014-02-14,NA,2014-02-24,NA,NA,704,80,YEARS,M,WHITE,NOT HISPANIC OR LATINO,Xan_Hi,Xanomeline High Dose,Xan_Hi,Xanomeline High Dose,USA,2013-11-24,-15,Xanomeline High Dose,Xanomeline High Dose,2013-12-09T00:00:00Z,H,2014-02-14T23:59:59Z,H,2013-12-09,2014-02-14,68,NA,2014-02-16,DISCONTINUED,NA,2013-12-09,NA,NA,NA,NA,NA,NA,NA,2014-02-24,Y,White,>64,NA,NA,NA,NA,NA
CDISCPILOT01,01-704-1351,1351,2013-10-12,2014-04-18,2013-10-12,2014-04-18,NA,2014-04-18T10:30,NA,NA,704,70,YEARS,M,WHITE,NOT HISPANIC OR LATINO,Pbo,Placebo,Pbo,Placebo,USA,2013-09-26,-16,Placebo,Placebo,2013-10-12T00:00:00Z,H,2014-04-18T23:59:59Z,H,2013-10-12,2014-04-18,189,NA,2014-04-18,COMPLETED,NA,2013-10-12,NA,NA,NA,NA,NA,NA,NA,2014-04-18,Y,White,>64,NA,NA,NA,NA,NA
CDISCPILOT01,01-704-1388,1388,2012-12-07,2013-06-19,2012-12-07,2013-06-11,NA,2013-06-19T12:30,NA,NA,704,81,YEARS,M,WHITE,NOT HISPANIC OR LATINO,Pbo,Placebo,Pbo,Placebo,USA,2012-11-28,-9,Placebo,Placebo,2012-12-07T00:00:00Z,H,2013-06-11T23:59:59Z,H,2012-12-07,2013-06-11,187,NA,2013-06-19,COMPLETED,NA,2012-12-07,NA,NA,NA,NA,NA,NA,NA,2013-06-19,Y,White,>64,NA,NA,NA,NA,NA
CDISCPILOT01,01-704-1435,1435,2012-11-17,2013-01-12,2012-11-17,2013-01-09,NA,2013-01-12T12:00,NA,NA,704,74,YEARS,M,WHITE,NOT HISPANIC OR LATINO,Pbo,Placebo,Pbo,Placebo,USA,2012-11-01,-16,Placebo,Placebo,2012-11-17T00:00:00Z,H,2013-01-09T23:59:59Z,H,2012-11-17,2013-01-09,54,NA,2013-01-12,DISCONTINUED,NA,2012-11-17,NA,NA,NA,NA,NA,NA,NA,2013-01-12,Y,White,>64,NA,NA,NA,NA,NA
CDISCPILOT01,01-704-1445,1445,2014-05-11,2014-11-01,2014-05-11,2014-11-01,NA,2014-11-01,2014-11-01,Y,704,75,YEARS,M,WHITE,NOT HISPANIC OR LATINO,Pbo,Placebo,Pbo,Placebo,USA,2014-05-01,-10,Placebo,Placebo,2014-05-11T00:00:00Z,H,2014-11-01T23:59:59Z,H,2014-05-11,2014-11-01,175,NA,2014-11-01,DISCONTINUED,NA,2014-05-11,2014-11-01,NA,175,0,COMPLETED SUICIDE,AE,ADVERSE EVENT,2014-11-01,Y,White,>64,NA,<= 30,Y,NA,NA
CDISCPILOT01,01-705-1011,1011,NA,NA,NA,NA,NA,2013-09-13,NA,NA,705,75,YEARS,F,WHITE,NOT HISPANIC OR LATINO,Scrnfail,Screen Failure,Scrnfail,Screen Failure,USA,2013-09-01,NA,Screen Failure,Screen Failure,NA,NA,NA,NA,NA,NA,NA,2013-09-01,NA,NA,NA,NA,NA,NA,NA,NA,NA,NA,NA,NA,NA,White,>64,NA,NA,NA,NA,NA
CDISCPILOT01,01-705-1018,1018,2013-07-05,2013-07-12,2013-07-05,NA,NA,2013-07-12,NA,NA,705,69,YEARS,F,WHITE,NOT HISPANIC OR LATINO,Pbo,Placebo,Pbo,Placebo,USA,2013-06-30,-5,Placebo,Placebo,2013-07-05T00:00:00Z,H,NA,NA,2013-07-05,NA,NA,NA,2013-07-12,DISCONTINUED,NA,2013-07-05,NA,NA,NA,NA,NA,NA,NA,2013-06-30,Y,White,>64,NA,NA,NA,NA,NA
CDISCPILOT01,01-705-1031,1031,2013-11-27,2014-05-11,2013-11-27,2013-12-18,NA,2014-05-11T09:55,NA,NA,705,56,YEARS,F,WHITE,HISPANIC OR LATINO,Xan_Lo,Xanomeline Low Dose,Xan_Lo,Xanomeline Low Dose,USA,2013-11-17,-10,Xanomeline Low Dose,Xanomeline Low Dose,2013-11-27T00:00:00Z,H,2013-12-18T23:59:59Z,H,2013-11-27,2013-12-18,22,NA,2014-05-11,DISCONTINUED,NA,2013-11-27,NA,NA,NA,NA,NA,NA,NA,2014-05-11,Y,White,18-64,NA,NA,NA,NA,NA
CDISCPILOT01,01-705-1058,1058,NA,NA,NA,NA,NA,2013-12-06,NA,NA,705,89,YEARS,M,WHITE,NOT HISPANIC OR LATINO,Scrnfail,Screen Failure,Scrnfail,Screen Failure,USA,2013-12-02,NA,Screen Failure,Screen Failure,NA,NA,NA,NA,NA,NA,NA,2013-12-02,NA,NA,NA,NA,NA,NA,NA,NA,NA,NA,NA,NA,NA,White,>64,NA,NA,NA,NA,NA
