STUDYID,DOMAIN,USUBJID,CESEQ,CELNKID,CELNKGRP,CETERM,CEDECOD,CELAT,CELOC,CECAT,CESCAT,CEPRESP,CEOCCUR,CESEV,CEREL,CEOUT,EPOCH,CEDTC,CESTDTC,CEENDTC,CEDUR,CETPT,CETPTNUM,CETPTREF,CERFTDTC,CEEVINTX,CESTAT,CEREASND,TRTSDT,TRTEDT,ASTDT,AENDT,ASTDY,AENDY,APERIOD,APERSDT,APEREDT,APERSTDY,AREL,ASEV,ASEVN,AOCC01FL,ASEQ,ADURN,ADURU,TRT01A,TRT01P,AGE,AGEU,SEX,RACE,COUNTRY,ETHNIC,SITEID,SUBJID
ABC,CE,ABC-1001,9,VACCINATION 1-NEW OR WORSENED JOINT PAIN,VACCINATION 1 - NEW OR WORSENED JOINT PAIN,NEW OR WORSENED JOINT PAIN,Arthralgia,NA,NA,REACTOGENICITY,SYSTEMIC,Y,Y,MILD,RELATED,RECOVERED/RESOLVED,VACCINATION 1,2021-11-06,2021-11-04,2021-11-04,P1D,DAY 7,7,VACCINATION 1,2021-11-03T10:50:00,SINCE VACCINATION,NA,NA,2021-11-03,2021-12-30,2021-11-04,2021-11-04,2,2,1,2021-11-03,2021-12-29,2,RELATED,MILD,1,NA,1,1,days,VACCINE A,VACCINE A,74,YEARS,F,WHITE,USA,NOT HISPANIC OR LATINO,1001,1001
ABC,CE,ABC-1001,20,VACCINATION 2-NEW OR WORSENED JOINT PAIN,VACCINATION 2 - NEW OR WORSENED JOINT PAIN,NEW OR WORSENED JOINT PAIN,Arthralgia,NA,NA,REACTOGENICITY,SYSTEMIC,Y,NA,NA,NA,NA,NA,NA,NA,NA,NA,DAY 7,7,VACCINATION 2,2021-12-30T09:10:00,SINCE VACCINATION,NOT DONE,SUBJECT DID NOT COMPLETE ELECTRONIC DIARY,2021-11-03,2021-12-30,NA,NA,NA,NA,NA,NA,NA,NA,NA,NA,NA,NA,2,NA,NA,VACCINE A,VACCINE A,74,YEARS,F,WHITE,USA,NOT HISPANIC OR LATINO,1001,1001
ABC,CE,ABC-1001,1,VACCINATION 1-CHILLS,VACCINATION 1 - CHILLS,CHILLS,Chills,NA,NA,REACTOGENICITY,SYSTEMIC,Y,N,NA,NA,NA,NA,NA,NA,NA,NA,DAY 7,7,VACCINATION 1,2021-11-03T10:50:00,SINCE VACCINATION,NA,NA,2021-11-03,2021-12-30,NA,NA,NA,NA,NA,NA,NA,NA,NA,NA,NA,NA,3,NA,NA,VACCINE A,VACCINE A,74,YEARS,F,WHITE,USA,NOT HISPANIC OR LATINO,1001,1001
ABC,CE,ABC-1001,12,VACCINATION 2-CHILLS,VACCINATION 2 - CHILLS,CHILLS,Chills,NA,NA,REACTOGENICITY,SYSTEMIC,Y,NA,NA,NA,NA,NA,NA,NA,NA,NA,DAY 7,7,VACCINATION 2,2021-12-30T09:10:00,SINCE VACCINATION,NOT DONE,SUBJECT DID NOT COMPLETE ELECTRONIC DIARY,2021-11-03,2021-12-30,NA,NA,NA,NA,NA,NA,NA,NA,NA,NA,NA,NA,4,NA,NA,VACCINE A,VACCINE A,74,YEARS,F,WHITE,USA,NOT HISPANIC OR LATINO,1001,1001
ABC,CE,ABC-1001,5,VACCINATION 1-DIARRHEA,VACCINATION 1 - DIARRHEA,DIARRHEA,Diarrhoea,NA,NA,REACTOGENICITY,SYSTEMIC,Y,N,NA,NA,NA,NA,NA,NA,NA,NA,DAY 7,7,VACCINATION 1,2021-11-03T10:50:00,SINCE VACCINATION,NA,NA,2021-11-03,2021-12-30,NA,NA,NA,NA,NA,NA,NA,NA,NA,NA,NA,NA,5,NA,NA,VACCINE A,VACCINE A,74,YEARS,F,WHITE,USA,NOT HISPANIC OR LATINO,1001,1001
ABC,CE,ABC-1001,16,VACCINATION 2-DIARRHEA,VACCINATION 2 - DIARRHEA,DIARRHEA,Diarrhoea,NA,NA,REACTOGENICITY,SYSTEMIC,Y,NA,NA,NA,NA,NA,NA,NA,NA,NA,DAY 7,7,VACCINATION 2,2021-12-30T09:10:00,SINCE VACCINATION,NOT DONE,SUBJECT DID NOT COMPLETE ELECTRONIC DIARY,2021-11-03,2021-12-30,NA,NA,NA,NA,NA,NA,NA,NA,NA,NA,NA,NA,6,NA,NA,VACCINE A,VACCINE A,74,YEARS,F,WHITE,USA,NOT HISPANIC OR LATINO,1001,1001
ABC,CE,ABC-1001,3,VACCINATION 1-DELTOID MUSCLE-LEFT-REDNESS,VACCINATION 1 - REDNESS,REDNESS,Erythema,LEFT,DELTOID MUSCLE,REACTOGENICITY,ADMINISTRATION SITE,Y,Y,MODERATE,RELATED,RECOVERED/RESOLVED,VACCINATION 1,2021-11-06,2021-11-04,2021-11-04,P1D,DAY 7,7,VACCINATION 1,2021-11-03T10:50:00,SINCE VACCINATION,NA,NA,2021-11-03,2021-12-30,2021-11-04,2021-11-04,2,2,1,2021-11-03,2021-12-29,2,RELATED,MODERATE,2,NA,7,1,days,VACCINE A,VACCINE A,74,YEARS,F,WHITE,USA,NOT HISPANIC OR LATINO,1001,1001
ABC,CE,ABC-1001,14,VACCINATION 2-DELTOID MUSCLE-LEFT-REDNESS,VACCINATION 2 - REDNESS,REDNESS,Erythema,LEFT,DELTOID MUSCLE,REACTOGENICITY,ADMINISTRATION SITE,Y,NA,NA,NA,NA,NA,NA,NA,NA,NA,DAY 7,7,VACCINATION 2,2021-12-30T09:10:00,SINCE VACCINATION,NOT DONE,SUBJECT DID NOT COMPLETE ELECTRONIC DIARY,2021-11-03,2021-12-30,NA,NA,NA,NA,NA,NA,NA,NA,NA,NA,NA,NA,8,NA,NA,VACCINE A,VACCINE A,74,YEARS,F,WHITE,USA,NOT HISPANIC OR LATINO,1001,1001
ABC,CE,ABC-1001,6,VACCINATION 1-FATIGUE,VACCINATION 1 - FATIGUE,FATIGUE,Fatigue,NA,NA,REACTOGENICITY,SYSTEMIC,Y,Y,MILD,RELATED,RECOVERED/RESOLVED,VACCINATION 1,2021-11-06,2021-11-03,2021-11-04,P2D,DAY 7,7,VACCINATION 1,2021-11-03T10:50:00,SINCE VACCINATION,NA,NA,2021-11-03,2021-12-30,2021-11-03,2021-11-04,1,2,1,2021-11-03,2021-12-29,1,RELATED,MILD,1,NA,9,2,days,VACCINE A,VACCINE A,74,YEARS,F,WHITE,USA,NOT HISPANIC OR LATINO,1001,1001
ABC,CE,ABC-1001,17,VACCINATION 2-FATIGUE,VACCINATION 2 - FATIGUE,FATIGUE,Fatigue,NA,NA,REACTOGENICITY,SYSTEMIC,Y,NA,NA,NA,NA,NA,NA,NA,NA,NA,DAY 7,7,VACCINATION 2,2021-12-30T09:10:00,SINCE VACCINATION,NOT DONE,SUBJECT DID NOT COMPLETE ELECTRONIC DIARY,2021-11-03,2021-12-30,NA,NA,NA,NA,NA,NA,NA,NA,NA,NA,NA,NA,10,NA,NA,VACCINE A,VACCINE A,74,YEARS,F,WHITE,USA,NOT HISPANIC OR LATINO,1001,1001
ABC,CE,ABC-1001,8,VACCINATION 1-HEADACHE,VACCINATION 1 - HEADACHE,HEADACHE,Headache,NA,NA,REACTOGENICITY,SYSTEMIC,Y,N,NA,NA,NA,NA,NA,NA,NA,NA,DAY 7,7,VACCINATION 1,2021-11-03T10:50:00,SINCE VACCINATION,NA,NA,2021-11-03,2021-12-30,NA,NA,NA,NA,NA,NA,NA,NA,NA,NA,NA,NA,11,NA,NA,VACCINE A,VACCINE A,74,YEARS,F,WHITE,USA,NOT HISPANIC OR LATINO,1001,1001
ABC,CE,ABC-1001,19,VACCINATION 2-HEADACHE,VACCINATION 2 - HEADACHE,HEADACHE,Headache,NA,NA,REACTOGENICITY,SYSTEMIC,Y,NA,NA,NA,NA,NA,NA,NA,NA,NA,DAY 7,7,VACCINATION 2,2021-12-30T09:10:00,SINCE VACCINATION,NOT DONE,SUBJECT DID NOT COMPLETE ELECTRONIC DIARY,2021-11-03,2021-12-30,NA,NA,NA,NA,NA,NA,NA,NA,NA,NA,NA,NA,12,NA,NA,VACCINE A,VACCINE A,74,YEARS,F,WHITE,USA,NOT HISPANIC OR LATINO,1001,1001
ABC,CE,ABC-1001,2,VACCINATION 1-DELTOID MUSCLE-LEFT-PAIN AT INJECTION SITE,VACCINATION 1 - PAIN AT INJECTION SITE,PAIN AT INJECTION SITE,Injection site pain,LEFT,DELTOID MUSCLE,REACTOGENICITY,ADMINISTRATION SITE,Y,Y,MODERATE,RELATED,RECOVERED/RESOLVED,VACCINATION 1,2021-11-09,2021-11-04,2021-11-07,P4D,DAY 7,7,VACCINATION 1,2021-11-03T10:50:00,SINCE VACCINATION,NA,NA,2021-11-03,2021-12-30,2021-11-04,2021-11-07,2,5,1,2021-11-03,2021-12-29,2,RELATED,MODERATE,2,NA,13,4,days,VACCINE A,VACCINE A,74,YEARS,F,WHITE,USA,NOT HISPANIC OR LATINO,1001,1001
ABC,CE,ABC-1001,13,VACCINATION 2-DELTOID MUSCLE-LEFT-PAIN AT INJECTION SITE,VACCINATION 2 - PAIN AT INJECTION SITE,PAIN AT INJECTION SITE,Injection site pain,LEFT,DELTOID MUSCLE,REACTOGENICITY,ADMINISTRATION SITE,Y,NA,NA,NA,NA,NA,NA,NA,NA,NA,DAY 7,7,VACCINATION 2,2021-12-30T09:10:00,SINCE VACCINATION,NOT DONE,SUBJECT DID NOT COMPLETE ELECTRONIC DIARY,2021-11-03,2021-12-30,NA,NA,NA,NA,NA,NA,NA,NA,NA,NA,NA,NA,14,NA,NA,VACCINE A,VACCINE A,74,YEARS,F,WHITE,USA,NOT HISPANIC OR LATINO,1001,1001
ABC,CE,ABC-1001,10,VACCINATION 1-NEW OR WORSENED MUSCLE PAIN,VACCINATION 1 - NEW OR WORSENED MUSCLE PAIN,NEW OR WORSENED MUSCLE PAIN,Myalgia,NA,NA,REACTOGENICITY,SYSTEMIC,Y,Y,MILD,RELATED,RECOVERED/RESOLVED,VACCINATION 1,2021-11-06,2021-11-04,2021-11-04,P1D,DAY 7,7,VACCINATION 1,2021-11-03T10:50:00,SINCE VACCINATION,NA,NA,2021-11-03,2021-12-30,2021-11-04,2021-11-04,2,2,1,2021-11-03,2021-12-29,2,RELATED,MILD,1,NA,15,1,days,VACCINE A,VACCINE A,74,YEARS,F,WHITE,USA,NOT HISPANIC OR LATINO,1001,1001
ABC,CE,ABC-1001,21,VACCINATION 2-NEW OR WORSENED MUSCLE PAIN,VACCINATION 2 - NEW OR WORSENED MUSCLE PAIN,NEW OR WORSENED MUSCLE PAIN,Myalgia,NA,NA,REACTOGENICITY,SYSTEMIC,Y,NA,NA,NA,NA,NA,NA,NA,NA,NA,DAY 7,7,VACCINATION 2,2021-12-30T09:10:00,SINCE VACCINATION,NOT DONE,SUBJECT DID NOT COMPLETE ELECTRONIC DIARY,2021-11-03,2021-12-30,NA,NA,NA,NA,NA,NA,NA,NA,NA,NA,NA,NA,16,NA,NA,VACCINE A,VACCINE A,74,YEARS,F,WHITE,USA,NOT HISPANIC OR LATINO,1001,1001
ABC,CE,ABC-1001,7,VACCINATION 1-FEVER,VACCINATION 1 - FEVER,FEVER,Pyrexia,NA,NA,REACTOGENICITY,SYSTEMIC,Y,N,NA,NA,NA,NA,NA,NA,NA,NA,DAY 7,7,VACCINATION 1,2021-11-03T10:50:00,SINCE VACCINATION,NA,NA,2021-11-03,2021-12-30,NA,NA,NA,NA,NA,NA,NA,NA,NA,NA,NA,NA,17,NA,NA,VACCINE A,VACCINE A,74,YEARS,F,WHITE,USA,NOT HISPANIC OR LATINO,1001,1001
ABC,CE,ABC-1001,18,VACCINATION 2-FEVER,VACCINATION 2 - FEVER,FEVER,Pyrexia,NA,NA,REACTOGENICITY,SYSTEMIC,Y,NA,NA,NA,NA,NA,NA,NA,NA,NA,DAY 7,7,VACCINATION 2,2021-12-30T09:10:00,SINCE VACCINATION,NOT DONE,SUBJECT DID NOT COMPLETE ELECTRONIC DIARY,2021-11-03,2021-12-30,NA,NA,NA,NA,NA,NA,NA,NA,NA,NA,NA,NA,18,NA,NA,VACCINE A,VACCINE A,74,YEARS,F,WHITE,USA,NOT HISPANIC OR LATINO,1001,1001
ABC,CE,ABC-1001,4,VACCINATION 1-DELTOID MUSCLE-LEFT-SWELLING,VACCINATION 1 - SWELLING,SWELLING,Swelling,LEFT,DELTOID MUSCLE,REACTOGENICITY,ADMINISTRATION SITE,Y,Y,MODERATE,RELATED,RECOVERED/RESOLVED,VACCINATION 1,2021-11-11,2021-11-03,2021-11-09,P7D,DAY 7,7,VACCINATION 1,2021-11-03T10:50:00,SINCE VACCINATION,NA,NA,2021-11-03,2021-12-30,2021-11-03,2021-11-09,1,7,1,2021-11-03,2021-12-29,1,RELATED,MODERATE,2,Y,19,7,days,VACCINE A,VACCINE A,74,YEARS,F,WHITE,USA,NOT HISPANIC OR LATINO,1001,1001
ABC,CE,ABC-1001,15,VACCINATION 2-DELTOID MUSCLE-LEFT-SWELLING,VACCINATION 2 - SWELLING,SWELLING,Swelling,LEFT,DELTOID MUSCLE,REACTOGENICITY,ADMINISTRATION SITE,Y,NA,NA,NA,NA,NA,NA,NA,NA,NA,DAY 7,7,VACCINATION 2,2021-12-30T09:10:00,SINCE VACCINATION,NOT DONE,SUBJECT DID NOT COMPLETE ELECTRONIC DIARY,2021-11-03,2021-12-30,NA,NA,NA,NA,NA,NA,NA,NA,NA,NA,NA,NA,20,NA,NA,VACCINE A,VACCINE A,74,YEARS,F,WHITE,USA,NOT HISPANIC OR LATINO,1001,1001
ABC,CE,ABC-1001,11,VACCINATION 1-VOMITING,VACCINATION 1 - VOMITING,VOMITING,Vomiting,NA,NA,REACTOGENICITY,SYSTEMIC,Y,N,NA,NA,NA,NA,NA,NA,NA,NA,DAY 7,7,VACCINATION 1,2021-11-03T10:50:00,SINCE VACCINATION,NA,NA,2021-11-03,2021-12-30,NA,NA,NA,NA,NA,NA,NA,NA,NA,NA,NA,NA,21,NA,NA,VACCINE A,VACCINE A,74,YEARS,F,WHITE,USA,NOT HISPANIC OR LATINO,1001,1001
ABC,CE,ABC-1001,22,VACCINATION 2-VOMITING,VACCINATION 2 - VOMITING,VOMITING,Vomiting,NA,NA,REACTOGENICITY,SYSTEMIC,Y,NA,NA,NA,NA,NA,NA,NA,NA,NA,DAY 7,7,VACCINATION 2,2021-12-30T09:10:00,SINCE VACCINATION,NOT DONE,SUBJECT DID NOT COMPLETE ELECTRONIC DIARY,2021-11-03,2021-12-30,NA,NA,NA,NA,NA,NA,NA,NA,NA,NA,NA,NA,22,NA,NA,VACCINE A,VACCINE A,74,YEARS,F,WHITE,USA,NOT HISPANIC OR LATINO,1001,1001
ABC,CE,ABC-1002,9,VACCINATION 1-NEW OR WORSENED JOINT PAIN,VACCINATION 1 - NEW OR WORSENED JOINT PAIN,NEW OR WORSENED JOINT PAIN,Arthralgia,NA,NA,REACTOGENICITY,SYSTEMIC,Y,N,NA,NA,NA,NA,NA,NA,NA,NA,DAY 7,7,VACCINATION 1,2021-10-07T12:48:00,SINCE VACCINATION,NA,NA,2021-10-07,2021-12-16,NA,NA,NA,NA,NA,NA,NA,NA,NA,NA,NA,NA,1,NA,NA,VACCINE A,VACCINE A,70,YEARS,F,BLACK OR AFRICAN AMERICAN,USA,HISPANIC OR LATINO,1002,1002
ABC,CE,ABC-1002,20,VACCINATION 2-NEW OR WORSENED JOINT PAIN,VACCINATION 2 - NEW OR WORSENED JOINT PAIN,NEW OR WORSENED JOINT PAIN,Arthralgia,NA,NA,REACTOGENICITY,SYSTEMIC,Y,N,NA,NA,NA,NA,NA,NA,NA,NA,DAY 7,7,VACCINATION 2,2021-12-16T12:41:00,SINCE VACCINATION,NA,NA,2021-10-07,2021-12-16,NA,NA,NA,NA,NA,NA,NA,NA,NA,NA,NA,NA,2,NA,NA,VACCINE A,VACCINE A,70,YEARS,F,BLACK OR AFRICAN AMERICAN,USA,HISPANIC OR LATINO,1002,1002
ABC,CE,ABC-1002,1,VACCINATION 1-CHILLS,VACCINATION 1 - CHILLS,CHILLS,Chills,NA,NA,REACTOGENICITY,SYSTEMIC,Y,N,NA,NA,NA,NA,NA,NA,NA,NA,DAY 7,7,VACCINATION 1,2021-10-07T12:48:00,SINCE VACCINATION,NA,NA,2021-10-07,2021-12-16,NA,NA,NA,NA,NA,NA,NA,NA,NA,NA,NA,NA,3,NA,NA,VACCINE A,VACCINE A,70,YEARS,F,BLACK OR AFRICAN AMERICAN,USA,HISPANIC OR LATINO,1002,1002
ABC,CE,ABC-1002,12,VACCINATION 2-CHILLS,VACCINATION 2 - CHILLS,CHILLS,Chills,NA,NA,REACTOGENICITY,SYSTEMIC,Y,N,NA,NA,NA,NA,NA,NA,NA,NA,DAY 7,7,VACCINATION 2,2021-12-16T12:41:00,SINCE VACCINATION,NA,NA,2021-10-07,2021-12-16,NA,NA,NA,NA,NA,NA,NA,NA,NA,NA,NA,NA,4,NA,NA,VACCINE A,VACCINE A,70,YEARS,F,BLACK OR AFRICAN AMERICAN,USA,HISPANIC OR LATINO,1002,1002
ABC,CE,ABC-1002,5,VACCINATION 1-DIARRHEA,VACCINATION 1 - DIARRHEA,DIARRHEA,Diarrhoea,NA,NA,REACTOGENICITY,SYSTEMIC,Y,N,NA,NA,NA,NA,NA,NA,NA,NA,DAY 7,7,VACCINATION 1,2021-10-07T12:48:00,SINCE VACCINATION,NA,NA,2021-10-07,2021-12-16,NA,NA,NA,NA,NA,NA,NA,NA,NA,NA,NA,NA,5,NA,NA,VACCINE A,VACCINE A,70,YEARS,F,BLACK OR AFRICAN AMERICAN,USA,HISPANIC OR LATINO,1002,1002
ABC,CE,ABC-1002,16,VACCINATION 2-DIARRHEA,VACCINATION 2 - DIARRHEA,DIARRHEA,Diarrhoea,NA,NA,REACTOGENICITY,SYSTEMIC,Y,N,NA,NA,NA,NA,NA,NA,NA,NA,DAY 7,7,VACCINATION 2,2021-12-16T12:41:00,SINCE VACCINATION,NA,NA,2021-10-07,2021-12-16,NA,NA,NA,NA,NA,NA,NA,NA,NA,NA,NA,NA,6,NA,NA,VACCINE A,VACCINE A,70,YEARS,F,BLACK OR AFRICAN AMERICAN,USA,HISPANIC OR LATINO,1002,1002
ABC,CE,ABC-1002,3,VACCINATION 1-DELTOID MUSCLE-LEFT-REDNESS,VACCINATION 1 - REDNESS,REDNESS,Erythema,LEFT,DELTOID MUSCLE,REACTOGENICITY,ADMINISTRATION SITE,Y,Y,MILD,RELATED,RECOVERED/RESOLVED,VACCINATION 1,2021-10-11,2021-10-09,2021-10-09,P1D,DAY 7,7,VACCINATION 1,2021-10-07T12:48:00,SINCE VACCINATION,NA,NA,2021-10-07,2021-12-16,2021-10-09,2021-10-09,3,3,1,2021-10-07,2021-12-15,3,RELATED,MILD,1,NA,7,1,days,VACCINE A,VACCINE A,70,YEARS,F,BLACK OR AFRICAN AMERICAN,USA,HISPANIC OR LATINO,1002,1002
ABC,CE,ABC-1002,14,VACCINATION 2-DELTOID MUSCLE-LEFT-REDNESS,VACCINATION 2 - REDNESS,REDNESS,Erythema,LEFT,DELTOID MUSCLE,REACTOGENICITY,ADMINISTRATION SITE,Y,Y,MILD,RELATED,RECOVERED/RESOLVED,VACCINATION 2,2021-12-23,2021-12-17,2021-12-21,P5D,DAY 7,7,VACCINATION 2,2021-12-16T12:41:00,SINCE VACCINATION,NA,NA,2021-10-07,2021-12-16,2021-12-17,2021-12-21,72,76,2,2021-12-16,2022-06-14,2,RELATED,MILD,1,NA,8,5,days,VACCINE A,VACCINE A,70,YEARS,F,BLACK OR AFRICAN AMERICAN,USA,HISPANIC OR LATINO,1002,1002
ABC,CE,ABC-1002,6,VACCINATION 1-FATIGUE,VACCINATION 1 - FATIGUE,FATIGUE,Fatigue,NA,NA,REACTOGENICITY,SYSTEMIC,Y,N,NA,NA,NA,NA,NA,NA,NA,NA,DAY 7,7,VACCINATION 1,2021-10-07T12:48:00,SINCE VACCINATION,NA,NA,2021-10-07,2021-12-16,NA,NA,NA,NA,NA,NA,NA,NA,NA,NA,NA,NA,9,NA,NA,VACCINE A,VACCINE A,70,YEARS,F,BLACK OR AFRICAN AMERICAN,USA,HISPANIC OR LATINO,1002,1002
ABC,CE,ABC-1002,17,VACCINATION 2-FATIGUE,VACCINATION 2 - FATIGUE,FATIGUE,Fatigue,NA,NA,REACTOGENICITY,SYSTEMIC,Y,N,NA,NA,NA,NA,NA,NA,NA,NA,DAY 7,7,VACCINATION 2,2021-12-16T12:41:00,SINCE VACCINATION,NA,NA,2021-10-07,2021-12-16,NA,NA,NA,NA,NA,NA,NA,NA,NA,NA,NA,NA,10,NA,NA,VACCINE A,VACCINE A,70,YEARS,F,BLACK OR AFRICAN AMERICAN,USA,HISPANIC OR LATINO,1002,1002
ABC,CE,ABC-1002,8,VACCINATION 1-HEADACHE,VACCINATION 1 - HEADACHE,HEADACHE,Headache,NA,NA,REACTOGENICITY,SYSTEMIC,Y,Y,MODERATE,RELATED,RECOVERED/RESOLVED,VACCINATION 1,2021-10-13,2021-10-11,2021-10-11,P1D,DAY 7,7,VACCINATION 1,2021-10-07T12:48:00,SINCE VACCINATION,NA,NA,2021-10-07,2021-12-16,2021-10-11,2021-10-11,5,5,1,2021-10-07,2021-12-15,5,RELATED,MODERATE,2,Y,11,1,days,VACCINE A,VACCINE A,70,YEARS,F,BLACK OR AFRICAN AMERICAN,USA,HISPANIC OR LATINO,1002,1002
ABC,CE,ABC-1002,19,VACCINATION 2-HEADACHE,VACCINATION 2 - HEADACHE,HEADACHE,Headache,NA,NA,REACTOGENICITY,SYSTEMIC,Y,Y,MILD,RELATED,RECOVERED/RESOLVED,VACCINATION 2,2021-12-23,2021-12-21,2021-12-21,P1D,DAY 7,7,VACCINATION 2,2021-12-16T12:41:00,SINCE VACCINATION,NA,NA,2021-10-07,2021-12-16,2021-12-21,2021-12-21,76,76,2,2021-12-16,2022-06-14,6,RELATED,MILD,1,NA,12,1,days,VACCINE A,VACCINE A,70,YEARS,F,BLACK OR AFRICAN AMERICAN,USA,HISPANIC OR LATINO,1002,1002
ABC,CE,ABC-1002,2,VACCINATION 1-DELTOID MUSCLE-LEFT-PAIN AT INJECTION SITE,VACCINATION 1 - PAIN AT INJECTION SITE,PAIN AT INJECTION SITE,Injection site pain,LEFT,DELTOID MUSCLE,REACTOGENICITY,ADMINISTRATION SITE,Y,N,NA,NA,NA,NA,NA,NA,NA,NA,DAY 7,7,VACCINATION 1,2021-10-07T12:48:00,SINCE VACCINATION,NA,NA,2021-10-07,2021-12-16,NA,NA,NA,NA,NA,NA,NA,NA,NA,NA,NA,NA,13,NA,NA,VACCINE A,VACCINE A,70,YEARS,F,BLACK OR AFRICAN AMERICAN,USA,HISPANIC OR LATINO,1002,1002
ABC,CE,ABC-1002,13,VACCINATION 2-DELTOID MUSCLE-LEFT-PAIN AT INJECTION SITE,VACCINATION 2 - PAIN AT INJECTION SITE,PAIN AT INJECTION SITE,Injection site pain,LEFT,DELTOID MUSCLE,REACTOGENICITY,ADMINISTRATION SITE,Y,Y,MILD,RELATED,RECOVERED/RESOLVED,VACCINATION 2,2021-12-21,2021-12-16,2021-12-19,P4D,DAY 7,7,VACCINATION 2,2021-12-16T12:41:00,SINCE VACCINATION,NA,NA,2021-10-07,2021-12-16,2021-12-16,2021-12-19,71,74,2,2021-12-16,2022-06-14,1,RELATED,MILD,1,Y,14,4,days,VACCINE A,VACCINE A,70,YEARS,F,BLACK OR AFRICAN AMERICAN,USA,HISPANIC OR LATINO,1002,1002
ABC,CE,ABC-1002,10,VACCINATION 1-NEW OR WORSENED MUSCLE PAIN,VACCINATION 1 - NEW OR WORSENED MUSCLE PAIN,NEW OR WORSENED MUSCLE PAIN,Myalgia,NA,NA,REACTOGENICITY,SYSTEMIC,Y,N,NA,NA,NA,NA,NA,NA,NA,NA,DAY 7,7,VACCINATION 1,2021-10-07T12:48:00,SINCE VACCINATION,NA,NA,2021-10-07,2021-12-16,NA,NA,NA,NA,NA,NA,NA,NA,NA,NA,NA,NA,15,NA,NA,VACCINE A,VACCINE A,70,YEARS,F,BLACK OR AFRICAN AMERICAN,USA,HISPANIC OR LATINO,1002,1002
ABC,CE,ABC-1002,21,VACCINATION 2-NEW OR WORSENED MUSCLE PAIN,VACCINATION 2 - NEW OR WORSENED MUSCLE PAIN,NEW OR WORSENED MUSCLE PAIN,Myalgia,NA,NA,REACTOGENICITY,SYSTEMIC,Y,N,NA,NA,NA,NA,NA,NA,NA,NA,DAY 7,7,VACCINATION 2,2021-12-16T12:41:00,SINCE VACCINATION,NA,NA,2021-10-07,2021-12-16,NA,NA,NA,NA,NA,NA,NA,NA,NA,NA,NA,NA,16,NA,NA,VACCINE A,VACCINE A,70,YEARS,F,BLACK OR AFRICAN AMERICAN,USA,HISPANIC OR LATINO,1002,1002
ABC,CE,ABC-1002,7,VACCINATION 1-FEVER,VACCINATION 1 - FEVER,FEVER,Pyrexia,NA,NA,REACTOGENICITY,SYSTEMIC,Y,N,NA,NA,NA,NA,NA,NA,NA,NA,DAY 7,7,VACCINATION 1,2021-10-07T12:48:00,SINCE VACCINATION,NA,NA,2021-10-07,2021-12-16,NA,NA,NA,NA,NA,NA,NA,NA,NA,NA,NA,NA,17,NA,NA,VACCINE A,VACCINE A,70,YEARS,F,BLACK OR AFRICAN AMERICAN,USA,HISPANIC OR LATINO,1002,1002
ABC,CE,ABC-1002,18,VACCINATION 2-FEVER,VACCINATION 2 - FEVER,FEVER,Pyrexia,NA,NA,REACTOGENICITY,SYSTEMIC,Y,N,NA,NA,NA,NA,NA,NA,NA,NA,DAY 7,7,VACCINATION 2,2021-12-16T12:41:00,SINCE VACCINATION,NA,NA,2021-10-07,2021-12-16,NA,NA,NA,NA,NA,NA,NA,NA,NA,NA,NA,NA,18,NA,NA,VACCINE A,VACCINE A,70,YEARS,F,BLACK OR AFRICAN AMERICAN,USA,HISPANIC OR LATINO,1002,1002
ABC,CE,ABC-1002,4,VACCINATION 1-DELTOID MUSCLE-LEFT-SWELLING,VACCINATION 1 - SWELLING,SWELLING,Swelling,LEFT,DELTOID MUSCLE,REACTOGENICITY,ADMINISTRATION SITE,Y,N,NA,NA,NA,NA,NA,NA,NA,NA,DAY 7,7,VACCINATION 1,2021-10-07T12:48:00,SINCE VACCINATION,NA,NA,2021-10-07,2021-12-16,NA,NA,NA,NA,NA,NA,NA,NA,NA,NA,NA,NA,19,NA,NA,VACCINE A,VACCINE A,70,YEARS,F,BLACK OR AFRICAN AMERICAN,USA,HISPANIC OR LATINO,1002,1002
ABC,CE,ABC-1002,15,VACCINATION 2-DELTOID MUSCLE-LEFT-SWELLING,VACCINATION 2 - SWELLING,SWELLING,Swelling,LEFT,DELTOID MUSCLE,REACTOGENICITY,ADMINISTRATION SITE,Y,Y,MILD,RELATED,RECOVERED/RESOLVED,VACCINATION 2,2021-12-21,2021-12-17,2021-12-19,P3D,DAY 7,7,VACCINATION 2,2021-12-16T12:41:00,SINCE VACCINATION,NA,NA,2021-10-07,2021-12-16,2021-12-17,2021-12-19,72,74,2,2021-12-16,2022-06-14,2,RELATED,MILD,1,NA,20,3,days,VACCINE A,VACCINE A,70,YEARS,F,BLACK OR AFRICAN AMERICAN,USA,HISPANIC OR LATINO,1002,1002
ABC,CE,ABC-1002,11,VACCINATION 1-VOMITING,VACCINATION 1 - VOMITING,VOMITING,Vomiting,NA,NA,REACTOGENICITY,SYSTEMIC,Y,N,NA,NA,NA,NA,NA,NA,NA,NA,DAY 7,7,VACCINATION 1,2021-10-07T12:48:00,SINCE VACCINATION,NA,NA,2021-10-07,2021-12-16,NA,NA,NA,NA,NA,NA,NA,NA,NA,NA,NA,NA,21,NA,NA,VACCINE A,VACCINE A,70,YEARS,F,BLACK OR AFRICAN AMERICAN,USA,HISPANIC OR LATINO,1002,1002
ABC,CE,ABC-1002,22,VACCINATION 2-VOMITING,VACCINATION 2 - VOMITING,VOMITING,Vomiting,NA,NA,REACTOGENICITY,SYSTEMIC,Y,N,NA,NA,NA,NA,NA,NA,NA,NA,DAY 7,7,VACCINATION 2,2021-12-16T12:41:00,SINCE VACCINATION,NA,NA,2021-10-07,2021-12-16,NA,NA,NA,NA,NA,NA,NA,NA,NA,NA,NA,NA,22,NA,NA,VACCINE A,VACCINE A,70,YEARS,F,BLACK OR AFRICAN AMERICAN,USA,HISPANIC OR LATINO,1002,1002
