STUDYID,DOMAIN,USUBJID,ISSEQ,ISTESTCD,ISTEST,ISCAT,ISORRES,ISORRESU,ISSTRESC,ISSTRESN,ISSTRESU,ISSTAT,ISREASND,ISNAM,ISSPEC,ISMETHOD,ISBLFL,ISLLOQ,VISITNUM,EPOCH,ISDTC,ISDY,ISULOQ,LOD,AVISITN,AVISIT,ATPTN,ATPT,ATPTREF,ADT,RFSTDTC,PPROTFL,ADY,PARAMCD,PARAM,PARAMN,PARCAT1,CUTOFF02,CUTOFF03,AVAL,AVALU,SERCAT1,SERCAT1N,DTYPE,BASETYPE,BASE,ABLFL,BASECAT1,CHG,R2BASE,CRIT1FL,CRIT1FN,CRIT1,APERIOD,APERSDT,APEREDT,TRTA,TRTP,PPSRFL,SUBJID,RFENDTC,RFXSTDTC,RFXENDTC,RFICDTC,RFPENDTC,DTHDTC,DTHFL,SITEID,INVID,INVNAM,BRTHDTC,AGE,AGEU,SEX,RACE,ETHNIC,ARMCD,ARM,ACTARMCD,ACTARM,COUNTRY,DMDTC,DMDY,TRT01P,TRT02P,TRT01A,TRT02A,TRTSDTM,TRTEDTM,TRTSDT,TRTEDT,SAFFL,RACEGR1,AGEGR1,REGION1,VAX01DT,VAX02DT,AP01SDT,AP01EDT,AP02SDT,AP02EDT
ABC,IS,ABC-1001,NA,J0033VN,J0033VN Antibody,IMMUNOLOGY,2,1/DIL,2,2,titer,NA,NA,LABNAME,SERUM,METHODNAME,NA,2,30,SECOND TREATMENT,2021-12,61,100,4,30,Visit 3,3,Visit 3 (Day 61),SECOND TREATMENT,2021-12-15,2021-11-03T10:50:00,Y,43,J0033VNF,4FOLD (J0033VN Antibody),21,IMMUNOLOGY,4,8,2,titer,NA,NA,NA,VISIT 1,NA,NA,NA,NA,NA,Y,1,Titer >= ISLLOQ,1,2021-11-03,2021-12-29,VACCINE A,VACCINE A,Y,1001,2022-04-27,2021-11-03T10:50:00,2021-12-30T09:10:00,2021-10-28,2022-04-27,NA,NA,1001,1328,"Potter, Harry",1947-09-21,74,YEARS,F,WHITE,NOT HISPANIC OR LATINO,VAXAB,VACCINE A VACCINE B,VAXAB,VACCINE A VACCINE B,USA,NA,NA,VACCINE A,VACCINE B,VACCINE A,VACCINE B,2021-11-03T10:50:00Z,2021-12-30T09:10:00Z,2021-11-03,2021-12-30,Y,White,>64,"NA",2021-11-03,2021-12-30,2021-11-03,2021-12-29,2021-12-30,2022-04-27
ABC,IS,ABC-1001,NA,I0019NT,I0019NT Antibody,IMMUNOLOGY,>200,1/DIL,>200,NA,titer,NA,NA,LABNAME,SERUM,METHODNAME,NA,4,30,SECOND TREATMENT,2021-12,61,200,5,30,Visit 3,3,Visit 3 (Day 61),SECOND TREATMENT,2021-12-15,2021-11-03T10:50:00,Y,43,I0019NTF,4FOLD (I0019NT Antibody),22,IMMUNOLOGY,4,8,200,titer,NA,NA,NA,VISIT 1,4,NA,Titer value < 1:10,196,50,Y,1,Titer >= ISLLOQ,1,2021-11-03,2021-12-29,VACCINE A,VACCINE A,Y,1001,2022-04-27,2021-11-03T10:50:00,2021-12-30T09:10:00,2021-10-28,2022-04-27,NA,NA,1001,1328,"Potter, Harry",1947-09-21,74,YEARS,F,WHITE,NOT HISPANIC OR LATINO,VAXAB,VACCINE A VACCINE B,VAXAB,VACCINE A VACCINE B,USA,NA,NA,VACCINE A,VACCINE B,VACCINE A,VACCINE B,2021-11-03T10:50:00Z,2021-12-30T09:10:00Z,2021-11-03,2021-12-30,Y,White,>64,"NA",2021-11-03,2021-12-30,2021-11-03,2021-12-29,2021-12-30,2022-04-27
ABC,IS,ABC-1001,NA,M0019LN,M0019LN Antibody,IMMUNOLOGY,<2,1/DIL,<2,NA,titer,NA,NA,LABNAME,SERUM,METHODNAME,NA,8,30,SECOND TREATMENT,2021-12,61,150,4,30,Visit 3,3,Visit 3 (Day 61),SECOND TREATMENT,2021-12-15,2021-11-03T10:50:00,Y,43,M0019LNF,4FOLD (M0019LN Antibody),23,IMMUNOLOGY,4,8,8,titer,NA,NA,NA,VISIT 1,150,NA,Titer value >= 1:10,-142,0.05333333333333334,Y,1,Titer >= ISLLOQ,1,2021-11-03,2021-12-29,VACCINE A,VACCINE A,Y,1001,2022-04-27,2021-11-03T10:50:00,2021-12-30T09:10:00,2021-10-28,2022-04-27,NA,NA,1001,1328,"Potter, Harry",1947-09-21,74,YEARS,F,WHITE,NOT HISPANIC OR LATINO,VAXAB,VACCINE A VACCINE B,VAXAB,VACCINE A VACCINE B,USA,NA,NA,VACCINE A,VACCINE B,VACCINE A,VACCINE B,2021-11-03T10:50:00Z,2021-12-30T09:10:00Z,2021-11-03,2021-12-30,Y,White,>64,"NA",2021-11-03,2021-12-30,2021-11-03,2021-12-29,2021-12-30,2022-04-27
ABC,IS,ABC-1001,NA,R0003MA,R0003MA Antibody,IMMUNOLOGY,98.2,1/DIL,98.2,98.2,titer,NA,NA,LABNAME,SERUM,METHODNAME,NA,4,30,SECOND TREATMENT,2021-12,61,120,8,30,Visit 3,3,Visit 3 (Day 61),SECOND TREATMENT,2021-12-15,2021-11-03T10:50:00,Y,43,R0003MAF,4FOLD (R0003MA Antibody),24,IMMUNOLOGY,4,8,98.2,titer,NA,NA,NA,VISIT 1,120,NA,Titer value >= 1:10,-21.799999999999997,0.8183333333333334,Y,1,Titer >= ISLLOQ,1,2021-11-03,2021-12-29,VACCINE A,VACCINE A,Y,1001,2022-04-27,2021-11-03T10:50:00,2021-12-30T09:10:00,2021-10-28,2022-04-27,NA,NA,1001,1328,"Potter, Harry",1947-09-21,74,YEARS,F,WHITE,NOT HISPANIC OR LATINO,VAXAB,VACCINE A VACCINE B,VAXAB,VACCINE A VACCINE B,USA,NA,NA,VACCINE A,VACCINE B,VACCINE A,VACCINE B,2021-11-03T10:50:00Z,2021-12-30T09:10:00Z,2021-11-03,2021-12-30,Y,White,>64,"NA",2021-11-03,2021-12-30,2021-11-03,2021-12-29,2021-12-30,2022-04-27
ABC,IS,ABC-1001,NA,J0033VN,J0033VN Antibody,IMMUNOLOGY,NA,NA,NA,NA,NA,NOT DONE,INVALID RESULT,LABNAME,SERUM,METHODNAME,Y,2,10,FIRST TREATMENT,NA,NA,100,4,10,Visit 1,1,Visit 1 (Day 1),FIRST TREATMENT,NA,2021-11-03T10:50:00,Y,NA,J0033VNF,4FOLD (J0033VN Antibody),21,IMMUNOLOGY,4,8,NA,NA,UNKNOWN,3,NA,VISIT 1,NA,NA,NA,NA,NA,NA,NA,NA,NA,NA,NA,NA,NA,Y,1001,2022-04-27,2021-11-03T10:50:00,2021-12-30T09:10:00,2021-10-28,2022-04-27,NA,NA,1001,1328,"Potter, Harry",1947-09-21,74,YEARS,F,WHITE,NOT HISPANIC OR LATINO,VAXAB,VACCINE A VACCINE B,VAXAB,VACCINE A VACCINE B,USA,NA,NA,VACCINE A,VACCINE B,VACCINE A,VACCINE B,2021-11-03T10:50:00Z,2021-12-30T09:10:00Z,2021-11-03,2021-12-30,Y,White,>64,"NA",2021-11-03,2021-12-30,2021-11-03,2021-12-29,2021-12-30,2022-04-27
ABC,IS,ABC-1001,NA,I0019NT,I0019NT Antibody,IMMUNOLOGY,3,1/DIL,3,3,titer,NA,NA,LABNAME,SERUM,METHODNAME,Y,4,10,FIRST TREATMENT,2021-11,1,200,5,10,Visit 1,1,Visit 1 (Day 1),FIRST TREATMENT,2021-11-15,2021-11-03T10:50:00,Y,13,I0019NTF,4FOLD (I0019NT Antibody),22,IMMUNOLOGY,4,8,4,titer,S+,2,NA,VISIT 1,4,Y,Titer value < 1:10,NA,NA,Y,1,Titer >= ISLLOQ,1,2021-11-03,2021-12-29,VACCINE A,VACCINE A,Y,1001,2022-04-27,2021-11-03T10:50:00,2021-12-30T09:10:00,2021-10-28,2022-04-27,NA,NA,1001,1328,"Potter, Harry",1947-09-21,74,YEARS,F,WHITE,NOT HISPANIC OR LATINO,VAXAB,VACCINE A VACCINE B,VAXAB,VACCINE A VACCINE B,USA,NA,NA,VACCINE A,VACCINE B,VACCINE A,VACCINE B,2021-11-03T10:50:00Z,2021-12-30T09:10:00Z,2021-11-03,2021-12-30,Y,White,>64,"NA",2021-11-03,2021-12-30,2021-11-03,2021-12-29,2021-12-30,2022-04-27
ABC,IS,ABC-1001,NA,M0019LN,M0019LN Antibody,IMMUNOLOGY,>150,1/DIL,>150,NA,titer,NA,NA,LABNAME,SERUM,METHODNAME,Y,8,10,FIRST TREATMENT,2021-11,1,150,4,10,Visit 1,1,Visit 1 (Day 1),FIRST TREATMENT,2021-11-15,2021-11-03T10:50:00,Y,13,M0019LNF,4FOLD (M0019LN Antibody),23,IMMUNOLOGY,4,8,150,titer,S+,2,NA,VISIT 1,150,Y,Titer value >= 1:10,NA,NA,Y,1,Titer >= ISLLOQ,1,2021-11-03,2021-12-29,VACCINE A,VACCINE A,Y,1001,2022-04-27,2021-11-03T10:50:00,2021-12-30T09:10:00,2021-10-28,2022-04-27,NA,NA,1001,1328,"Potter, Harry",1947-09-21,74,YEARS,F,WHITE,NOT HISPANIC OR LATINO,VAXAB,VACCINE A VACCINE B,VAXAB,VACCINE A VACCINE B,USA,NA,NA,VACCINE A,VACCINE B,VACCINE A,VACCINE B,2021-11-03T10:50:00Z,2021-12-30T09:10:00Z,2021-11-03,2021-12-30,Y,White,>64,"NA",2021-11-03,2021-12-30,2021-11-03,2021-12-29,2021-12-30,2022-04-27
ABC,IS,ABC-1001,NA,R0003MA,R0003MA Antibody,IMMUNOLOGY,140.5,1/DIL,140.5,140.5,titer,NA,NA,LABNAME,SERUM,METHODNAME,Y,4,10,FIRST TREATMENT,2021-11,1,120,8,10,Visit 1,1,Visit 1 (Day 1),FIRST TREATMENT,2021-11-15,2021-11-03T10:50:00,Y,13,R0003MAF,4FOLD (R0003MA Antibody),24,IMMUNOLOGY,4,8,120,titer,S+,2,NA,VISIT 1,120,Y,Titer value >= 1:10,NA,NA,Y,1,Titer >= ISLLOQ,1,2021-11-03,2021-12-29,VACCINE A,VACCINE A,Y,1001,2022-04-27,2021-11-03T10:50:00,2021-12-30T09:10:00,2021-10-28,2022-04-27,NA,NA,1001,1328,"Potter, Harry",1947-09-21,74,YEARS,F,WHITE,NOT HISPANIC OR LATINO,VAXAB,VACCINE A VACCINE B,VAXAB,VACCINE A VACCINE B,USA,NA,NA,VACCINE A,VACCINE B,VACCINE A,VACCINE B,2021-11-03T10:50:00Z,2021-12-30T09:10:00Z,2021-11-03,2021-12-30,Y,White,>64,"NA",2021-11-03,2021-12-30,2021-11-03,2021-12-29,2021-12-30,2022-04-27
ABC,IS,ABC-1001,NA,J0033VN,J0033VN Antibody,IMMUNOLOGY,2,1/DIL,2,2,titer,NA,NA,LABNAME,SERUM,METHODNAME,NA,2,30,SECOND TREATMENT,2021-12,61,100,4,30,Visit 3,3,Visit 3 (Day 61),SECOND TREATMENT,2021-12-15,2021-11-03T10:50:00,Y,43,J0033VNL,LOG10 (J0033VN Antibody),11,IMMUNOLOGY,4,8,0.3,titer,NA,NA,NA,VISIT 1,NA,NA,NA,NA,NA,N,0,Titer >= ISLLOQ,1,2021-11-03,2021-12-29,VACCINE A,VACCINE A,Y,1001,2022-04-27,2021-11-03T10:50:00,2021-12-30T09:10:00,2021-10-28,2022-04-27,NA,NA,1001,1328,"Potter, Harry",1947-09-21,74,YEARS,F,WHITE,NOT HISPANIC OR LATINO,VAXAB,VACCINE A VACCINE B,VAXAB,VACCINE A VACCINE B,USA,NA,NA,VACCINE A,VACCINE B,VACCINE A,VACCINE B,2021-11-03T10:50:00Z,2021-12-30T09:10:00Z,2021-11-03,2021-12-30,Y,White,>64,"NA",2021-11-03,2021-12-30,2021-11-03,2021-12-29,2021-12-30,2022-04-27
ABC,IS,ABC-1001,NA,I0019NT,I0019NT Antibody,IMMUNOLOGY,>200,1/DIL,>200,NA,titer,NA,NA,LABNAME,SERUM,METHODNAME,NA,4,30,SECOND TREATMENT,2021-12,61,200,5,30,Visit 3,3,Visit 3 (Day 61),SECOND TREATMENT,2021-12-15,2021-11-03T10:50:00,Y,43,I0019NTL,LOG10 (I0019NT Antibody),12,IMMUNOLOGY,4,8,2.3,titer,NA,NA,ULOQ,VISIT 1,0.3,NA,Titer value < 1:10,1.9999999999999998,7.666666666666666,N,0,Titer >= ISLLOQ,1,2021-11-03,2021-12-29,VACCINE A,VACCINE A,Y,1001,2022-04-27,2021-11-03T10:50:00,2021-12-30T09:10:00,2021-10-28,2022-04-27,NA,NA,1001,1328,"Potter, Harry",1947-09-21,74,YEARS,F,WHITE,NOT HISPANIC OR LATINO,VAXAB,VACCINE A VACCINE B,VAXAB,VACCINE A VACCINE B,USA,NA,NA,VACCINE A,VACCINE B,VACCINE A,VACCINE B,2021-11-03T10:50:00Z,2021-12-30T09:10:00Z,2021-11-03,2021-12-30,Y,White,>64,"NA",2021-11-03,2021-12-30,2021-11-03,2021-12-29,2021-12-30,2022-04-27
ABC,IS,ABC-1001,NA,M0019LN,M0019LN Antibody,IMMUNOLOGY,<2,1/DIL,<2,NA,titer,NA,NA,LABNAME,SERUM,METHODNAME,NA,8,30,SECOND TREATMENT,2021-12,61,150,4,30,Visit 3,3,Visit 3 (Day 61),SECOND TREATMENT,2021-12-15,2021-11-03T10:50:00,Y,43,M0019LNL,LOG10 (M0019LN Antibody),13,IMMUNOLOGY,4,8,0.6,titer,NA,NA,HALFLLOQ,VISIT 1,2.18,NA,Titer value < 1:10,-1.58,0.2752293577981651,N,0,Titer >= ISLLOQ,1,2021-11-03,2021-12-29,VACCINE A,VACCINE A,Y,1001,2022-04-27,2021-11-03T10:50:00,2021-12-30T09:10:00,2021-10-28,2022-04-27,NA,NA,1001,1328,"Potter, Harry",1947-09-21,74,YEARS,F,WHITE,NOT HISPANIC OR LATINO,VAXAB,VACCINE A VACCINE B,VAXAB,VACCINE A VACCINE B,USA,NA,NA,VACCINE A,VACCINE B,VACCINE A,VACCINE B,2021-11-03T10:50:00Z,2021-12-30T09:10:00Z,2021-11-03,2021-12-30,Y,White,>64,"NA",2021-11-03,2021-12-30,2021-11-03,2021-12-29,2021-12-30,2022-04-27
ABC,IS,ABC-1001,NA,R0003MA,R0003MA Antibody,IMMUNOLOGY,98.2,1/DIL,98.2,98.2,titer,NA,NA,LABNAME,SERUM,METHODNAME,NA,4,30,SECOND TREATMENT,2021-12,61,120,8,30,Visit 3,3,Visit 3 (Day 61),SECOND TREATMENT,2021-12-15,2021-11-03T10:50:00,Y,43,R0003MAL,LOG10 (R0003MA Antibody),14,IMMUNOLOGY,4,8,1.99,titer,NA,NA,NA,VISIT 1,2.08,NA,Titer value < 1:10,-0.09000000000000008,0.9567307692307692,N,0,Titer >= ISLLOQ,1,2021-11-03,2021-12-29,VACCINE A,VACCINE A,Y,1001,2022-04-27,2021-11-03T10:50:00,2021-12-30T09:10:00,2021-10-28,2022-04-27,NA,NA,1001,1328,"Potter, Harry",1947-09-21,74,YEARS,F,WHITE,NOT HISPANIC OR LATINO,VAXAB,VACCINE A VACCINE B,VAXAB,VACCINE A VACCINE B,USA,NA,NA,VACCINE A,VACCINE B,VACCINE A,VACCINE B,2021-11-03T10:50:00Z,2021-12-30T09:10:00Z,2021-11-03,2021-12-30,Y,White,>64,"NA",2021-11-03,2021-12-30,2021-11-03,2021-12-29,2021-12-30,2022-04-27
ABC,IS,ABC-1001,NA,J0033VN,J0033VN Antibody,IMMUNOLOGY,NA,NA,NA,NA,NA,NOT DONE,INVALID RESULT,LABNAME,SERUM,METHODNAME,Y,2,10,FIRST TREATMENT,NA,NA,100,4,10,Visit 1,1,Visit 1 (Day 1),FIRST TREATMENT,NA,2021-11-03T10:50:00,Y,NA,J0033VNL,LOG10 (J0033VN Antibody),11,IMMUNOLOGY,4,8,NA,NA,UNKNOWN,3,NA,VISIT 1,NA,NA,NA,NA,NA,NA,NA,NA,NA,NA,NA,NA,NA,Y,1001,2022-04-27,2021-11-03T10:50:00,2021-12-30T09:10:00,2021-10-28,2022-04-27,NA,NA,1001,1328,"Potter, Harry",1947-09-21,74,YEARS,F,WHITE,NOT HISPANIC OR LATINO,VAXAB,VACCINE A VACCINE B,VAXAB,VACCINE A VACCINE B,USA,NA,NA,VACCINE A,VACCINE B,VACCINE A,VACCINE B,2021-11-03T10:50:00Z,2021-12-30T09:10:00Z,2021-11-03,2021-12-30,Y,White,>64,"NA",2021-11-03,2021-12-30,2021-11-03,2021-12-29,2021-12-30,2022-04-27
ABC,IS,ABC-1001,NA,I0019NT,I0019NT Antibody,IMMUNOLOGY,3,1/DIL,3,3,titer,NA,NA,LABNAME,SERUM,METHODNAME,Y,4,10,FIRST TREATMENT,2021-11,1,200,5,10,Visit 1,1,Visit 1 (Day 1),FIRST TREATMENT,2021-11-15,2021-11-03T10:50:00,Y,13,I0019NTL,LOG10 (I0019NT Antibody),12,IMMUNOLOGY,4,8,0.3,titer,S-,1,HALFLLOQ,VISIT 1,0.3,Y,Titer value < 1:10,NA,NA,N,0,Titer >= ISLLOQ,1,2021-11-03,2021-12-29,VACCINE A,VACCINE A,Y,1001,2022-04-27,2021-11-03T10:50:00,2021-12-30T09:10:00,2021-10-28,2022-04-27,NA,NA,1001,1328,"Potter, Harry",1947-09-21,74,YEARS,F,WHITE,NOT HISPANIC OR LATINO,VAXAB,VACCINE A VACCINE B,VAXAB,VACCINE A VACCINE B,USA,NA,NA,VACCINE A,VACCINE B,VACCINE A,VACCINE B,2021-11-03T10:50:00Z,2021-12-30T09:10:00Z,2021-11-03,2021-12-30,Y,White,>64,"NA",2021-11-03,2021-12-30,2021-11-03,2021-12-29,2021-12-30,2022-04-27
ABC,IS,ABC-1001,NA,M0019LN,M0019LN Antibody,IMMUNOLOGY,>150,1/DIL,>150,NA,titer,NA,NA,LABNAME,SERUM,METHODNAME,Y,8,10,FIRST TREATMENT,2021-11,1,150,4,10,Visit 1,1,Visit 1 (Day 1),FIRST TREATMENT,2021-11-15,2021-11-03T10:50:00,Y,13,M0019LNL,LOG10 (M0019LN Antibody),13,IMMUNOLOGY,4,8,2.18,titer,S-,1,ULOQ,VISIT 1,2.18,Y,Titer value < 1:10,NA,NA,N,0,Titer >= ISLLOQ,1,2021-11-03,2021-12-29,VACCINE A,VACCINE A,Y,1001,2022-04-27,2021-11-03T10:50:00,2021-12-30T09:10:00,2021-10-28,2022-04-27,NA,NA,1001,1328,"Potter, Harry",1947-09-21,74,YEARS,F,WHITE,NOT HISPANIC OR LATINO,VAXAB,VACCINE A VACCINE B,VAXAB,VACCINE A VACCINE B,USA,NA,NA,VACCINE A,VACCINE B,VACCINE A,VACCINE B,2021-11-03T10:50:00Z,2021-12-30T09:10:00Z,2021-11-03,2021-12-30,Y,White,>64,"NA",2021-11-03,2021-12-30,2021-11-03,2021-12-29,2021-12-30,2022-04-27
ABC,IS,ABC-1001,NA,R0003MA,R0003MA Antibody,IMMUNOLOGY,140.5,1/DIL,140.5,140.5,titer,NA,NA,LABNAME,SERUM,METHODNAME,Y,4,10,FIRST TREATMENT,2021-11,1,120,8,10,Visit 1,1,Visit 1 (Day 1),FIRST TREATMENT,2021-11-15,2021-11-03T10:50:00,Y,13,R0003MAL,LOG10 (R0003MA Antibody),14,IMMUNOLOGY,4,8,2.08,titer,S-,1,ULOQ,VISIT 1,2.08,Y,Titer value < 1:10,NA,NA,N,0,Titer >= ISLLOQ,1,2021-11-03,2021-12-29,VACCINE A,VACCINE A,Y,1001,2022-04-27,2021-11-03T10:50:00,2021-12-30T09:10:00,2021-10-28,2022-04-27,NA,NA,1001,1328,"Potter, Harry",1947-09-21,74,YEARS,F,WHITE,NOT HISPANIC OR LATINO,VAXAB,VACCINE A VACCINE B,VAXAB,VACCINE A VACCINE B,USA,NA,NA,VACCINE A,VACCINE B,VACCINE A,VACCINE B,2021-11-03T10:50:00Z,2021-12-30T09:10:00Z,2021-11-03,2021-12-30,Y,White,>64,"NA",2021-11-03,2021-12-30,2021-11-03,2021-12-29,2021-12-30,2022-04-27
ABC,IS,ABC-1001,NA,J0033VN,J0033VN Antibody,IMMUNOLOGY,2,1/DIL,2,2,titer,NA,NA,LABNAME,SERUM,METHODNAME,NA,2,30,SECOND TREATMENT,2021-12,61,100,4,30,Visit 3,3,Visit 3 (Day 61),SECOND TREATMENT,2021-12-15,2021-11-03T10:50:00,Y,43,J0033VLF,LOG10 4FOLD (J0033VN Antibody),31,IMMUNOLOGY,4,8,0.3,titer,NA,NA,NA,VISIT 1,NA,NA,NA,NA,NA,N,0,Titer >= ISLLOQ,1,2021-11-03,2021-12-29,VACCINE A,VACCINE A,Y,1001,2022-04-27,2021-11-03T10:50:00,2021-12-30T09:10:00,2021-10-28,2022-04-27,NA,NA,1001,1328,"Potter, Harry",1947-09-21,74,YEARS,F,WHITE,NOT HISPANIC OR LATINO,VAXAB,VACCINE A VACCINE B,VAXAB,VACCINE A VACCINE B,USA,NA,NA,VACCINE A,VACCINE B,VACCINE A,VACCINE B,2021-11-03T10:50:00Z,2021-12-30T09:10:00Z,2021-11-03,2021-12-30,Y,White,>64,"NA",2021-11-03,2021-12-30,2021-11-03,2021-12-29,2021-12-30,2022-04-27
ABC,IS,ABC-1001,NA,I0019NT,I0019NT Antibody,IMMUNOLOGY,>200,1/DIL,>200,NA,titer,NA,NA,LABNAME,SERUM,METHODNAME,NA,4,30,SECOND TREATMENT,2021-12,61,200,5,30,Visit 3,3,Visit 3 (Day 61),SECOND TREATMENT,2021-12-15,2021-11-03T10:50:00,Y,43,I0019NLF,LOG10 4FOLD (I0019NT Antibody),32,IMMUNOLOGY,4,8,2.3,titer,NA,NA,NA,VISIT 1,0.6,NA,Titer value < 1:10,1.6999999999999997,3.833333333333333,N,0,Titer >= ISLLOQ,1,2021-11-03,2021-12-29,VACCINE A,VACCINE A,Y,1001,2022-04-27,2021-11-03T10:50:00,2021-12-30T09:10:00,2021-10-28,2022-04-27,NA,NA,1001,1328,"Potter, Harry",1947-09-21,74,YEARS,F,WHITE,NOT HISPANIC OR LATINO,VAXAB,VACCINE A VACCINE B,VAXAB,VACCINE A VACCINE B,USA,NA,NA,VACCINE A,VACCINE B,VACCINE A,VACCINE B,2021-11-03T10:50:00Z,2021-12-30T09:10:00Z,2021-11-03,2021-12-30,Y,White,>64,"NA",2021-11-03,2021-12-30,2021-11-03,2021-12-29,2021-12-30,2022-04-27
ABC,IS,ABC-1001,NA,M0019LN,M0019LN Antibody,IMMUNOLOGY,<2,1/DIL,<2,NA,titer,NA,NA,LABNAME,SERUM,METHODNAME,NA,8,30,SECOND TREATMENT,2021-12,61,150,4,30,Visit 3,3,Visit 3 (Day 61),SECOND TREATMENT,2021-12-15,2021-11-03T10:50:00,Y,43,M0019LLF,LOG10 4FOLD (M0019LN Antibody),33,IMMUNOLOGY,4,8,0.9,titer,NA,NA,NA,VISIT 1,2.18,NA,Titer value < 1:10,-1.2800000000000002,0.4128440366972477,N,0,Titer >= ISLLOQ,1,2021-11-03,2021-12-29,VACCINE A,VACCINE A,Y,1001,2022-04-27,2021-11-03T10:50:00,2021-12-30T09:10:00,2021-10-28,2022-04-27,NA,NA,1001,1328,"Potter, Harry",1947-09-21,74,YEARS,F,WHITE,NOT HISPANIC OR LATINO,VAXAB,VACCINE A VACCINE B,VAXAB,VACCINE A VACCINE B,USA,NA,NA,VACCINE A,VACCINE B,VACCINE A,VACCINE B,2021-11-03T10:50:00Z,2021-12-30T09:10:00Z,2021-11-03,2021-12-30,Y,White,>64,"NA",2021-11-03,2021-12-30,2021-11-03,2021-12-29,2021-12-30,2022-04-27
ABC,IS,ABC-1001,NA,R0003MA,R0003MA Antibody,IMMUNOLOGY,98.2,1/DIL,98.2,98.2,titer,NA,NA,LABNAME,SERUM,METHODNAME,NA,4,30,SECOND TREATMENT,2021-12,61,120,8,30,Visit 3,3,Visit 3 (Day 61),SECOND TREATMENT,2021-12-15,2021-11-03T10:50:00,Y,43,R0003MLF,LOG10 4FOLD (R0003MA Antibody),34,IMMUNOLOGY,4,8,1.99,titer,NA,NA,NA,VISIT 1,2.08,NA,Titer value < 1:10,-0.09000000000000008,0.9567307692307692,N,0,Titer >= ISLLOQ,1,2021-11-03,2021-12-29,VACCINE A,VACCINE A,Y,1001,2022-04-27,2021-11-03T10:50:00,2021-12-30T09:10:00,2021-10-28,2022-04-27,NA,NA,1001,1328,"Potter, Harry",1947-09-21,74,YEARS,F,WHITE,NOT HISPANIC OR LATINO,VAXAB,VACCINE A VACCINE B,VAXAB,VACCINE A VACCINE B,USA,NA,NA,VACCINE A,VACCINE B,VACCINE A,VACCINE B,2021-11-03T10:50:00Z,2021-12-30T09:10:00Z,2021-11-03,2021-12-30,Y,White,>64,"NA",2021-11-03,2021-12-30,2021-11-03,2021-12-29,2021-12-30,2022-04-27
ABC,IS,ABC-1001,NA,J0033VN,J0033VN Antibody,IMMUNOLOGY,NA,NA,NA,NA,NA,NOT DONE,INVALID RESULT,LABNAME,SERUM,METHODNAME,Y,2,10,FIRST TREATMENT,NA,NA,100,4,10,Visit 1,1,Visit 1 (Day 1),FIRST TREATMENT,NA,2021-11-03T10:50:00,Y,NA,J0033VLF,LOG10 4FOLD (J0033VN Antibody),31,IMMUNOLOGY,4,8,NA,NA,UNKNOWN,3,NA,VISIT 1,NA,NA,NA,NA,NA,NA,NA,NA,NA,NA,NA,NA,NA,Y,1001,2022-04-27,2021-11-03T10:50:00,2021-12-30T09:10:00,2021-10-28,2022-04-27,NA,NA,1001,1328,"Potter, Harry",1947-09-21,74,YEARS,F,WHITE,NOT HISPANIC OR LATINO,VAXAB,VACCINE A VACCINE B,VAXAB,VACCINE A VACCINE B,USA,NA,NA,VACCINE A,VACCINE B,VACCINE A,VACCINE B,2021-11-03T10:50:00Z,2021-12-30T09:10:00Z,2021-11-03,2021-12-30,Y,White,>64,"NA",2021-11-03,2021-12-30,2021-11-03,2021-12-29,2021-12-30,2022-04-27
ABC,IS,ABC-1001,NA,I0019NT,I0019NT Antibody,IMMUNOLOGY,3,1/DIL,3,3,titer,NA,NA,LABNAME,SERUM,METHODNAME,Y,4,10,FIRST TREATMENT,2021-11,1,200,5,10,Visit 1,1,Visit 1 (Day 1),FIRST TREATMENT,2021-11-15,2021-11-03T10:50:00,Y,13,I0019NLF,LOG10 4FOLD (I0019NT Antibody),32,IMMUNOLOGY,4,8,0.6,titer,S-,1,NA,VISIT 1,0.6,Y,Titer value < 1:10,NA,NA,N,0,Titer >= ISLLOQ,1,2021-11-03,2021-12-29,VACCINE A,VACCINE A,Y,1001,2022-04-27,2021-11-03T10:50:00,2021-12-30T09:10:00,2021-10-28,2022-04-27,NA,NA,1001,1328,"Potter, Harry",1947-09-21,74,YEARS,F,WHITE,NOT HISPANIC OR LATINO,VAXAB,VACCINE A VACCINE B,VAXAB,VACCINE A VACCINE B,USA,NA,NA,VACCINE A,VACCINE B,VACCINE A,VACCINE B,2021-11-03T10:50:00Z,2021-12-30T09:10:00Z,2021-11-03,2021-12-30,Y,White,>64,"NA",2021-11-03,2021-12-30,2021-11-03,2021-12-29,2021-12-30,2022-04-27
ABC,IS,ABC-1001,NA,M0019LN,M0019LN Antibody,IMMUNOLOGY,>150,1/DIL,>150,NA,titer,NA,NA,LABNAME,SERUM,METHODNAME,Y,8,10,FIRST TREATMENT,2021-11,1,150,4,10,Visit 1,1,Visit 1 (Day 1),FIRST TREATMENT,2021-11-15,2021-11-03T10:50:00,Y,13,M0019LLF,LOG10 4FOLD (M0019LN Antibody),33,IMMUNOLOGY,4,8,2.18,titer,S-,1,NA,VISIT 1,2.18,Y,Titer value < 1:10,NA,NA,N,0,Titer >= ISLLOQ,1,2021-11-03,2021-12-29,VACCINE A,VACCINE A,Y,1001,2022-04-27,2021-11-03T10:50:00,2021-12-30T09:10:00,2021-10-28,2022-04-27,NA,NA,1001,1328,"Potter, Harry",1947-09-21,74,YEARS,F,WHITE,NOT HISPANIC OR LATINO,VAXAB,VACCINE A VACCINE B,VAXAB,VACCINE A VACCINE B,USA,NA,NA,VACCINE A,VACCINE B,VACCINE A,VACCINE B,2021-11-03T10:50:00Z,2021-12-30T09:10:00Z,2021-11-03,2021-12-30,Y,White,>64,"NA",2021-11-03,2021-12-30,2021-11-03,2021-12-29,2021-12-30,2022-04-27
ABC,IS,ABC-1001,NA,R0003MA,R0003MA Antibody,IMMUNOLOGY,140.5,1/DIL,140.5,140.5,titer,NA,NA,LABNAME,SERUM,METHODNAME,Y,4,10,FIRST TREATMENT,2021-11,1,120,8,10,Visit 1,1,Visit 1 (Day 1),FIRST TREATMENT,2021-11-15,2021-11-03T10:50:00,Y,13,R0003MLF,LOG10 4FOLD (R0003MA Antibody),34,IMMUNOLOGY,4,8,2.08,titer,S-,1,NA,VISIT 1,2.08,Y,Titer value < 1:10,NA,NA,N,0,Titer >= ISLLOQ,1,2021-11-03,2021-12-29,VACCINE A,VACCINE A,Y,1001,2022-04-27,2021-11-03T10:50:00,2021-12-30T09:10:00,2021-10-28,2022-04-27,NA,NA,1001,1328,"Potter, Harry",1947-09-21,74,YEARS,F,WHITE,NOT HISPANIC OR LATINO,VAXAB,VACCINE A VACCINE B,VAXAB,VACCINE A VACCINE B,USA,NA,NA,VACCINE A,VACCINE B,VACCINE A,VACCINE B,2021-11-03T10:50:00Z,2021-12-30T09:10:00Z,2021-11-03,2021-12-30,Y,White,>64,"NA",2021-11-03,2021-12-30,2021-11-03,2021-12-29,2021-12-30,2022-04-27
ABC,IS,ABC-1001,1,J0033VN,J0033VN Antibody,IMMUNOLOGY,NA,NA,NA,NA,NA,NOT DONE,INVALID RESULT,LABNAME,SERUM,METHODNAME,Y,2,10,FIRST TREATMENT,NA,NA,100,4,10,Visit 1,1,Visit 1 (Day 1),FIRST TREATMENT,NA,2021-11-03T10:50:00,Y,NA,J0033VN,J0033VN Antibody,1,IMMUNOLOGY,4,8,NA,NA,UNKNOWN,3,NA,VISIT 1,NA,NA,NA,NA,NA,NA,NA,NA,NA,NA,NA,NA,NA,Y,1001,2022-04-27,2021-11-03T10:50:00,2021-12-30T09:10:00,2021-10-28,2022-04-27,NA,NA,1001,1328,"Potter, Harry",1947-09-21,74,YEARS,F,WHITE,NOT HISPANIC OR LATINO,VAXAB,VACCINE A VACCINE B,VAXAB,VACCINE A VACCINE B,USA,NA,NA,VACCINE A,VACCINE B,VACCINE A,VACCINE B,2021-11-03T10:50:00Z,2021-12-30T09:10:00Z,2021-11-03,2021-12-30,Y,White,>64,"NA",2021-11-03,2021-12-30,2021-11-03,2021-12-29,2021-12-30,2022-04-27
ABC,IS,ABC-1001,2,I0019NT,I0019NT Antibody,IMMUNOLOGY,3,1/DIL,3,3,titer,NA,NA,LABNAME,SERUM,METHODNAME,Y,4,10,FIRST TREATMENT,2021-11,1,200,5,10,Visit 1,1,Visit 1 (Day 1),FIRST TREATMENT,2021-11-15,2021-11-03T10:50:00,Y,13,I0019NT,I0019NT Antibody,2,IMMUNOLOGY,4,8,2,titer,S-,1,HALFLLOQ,VISIT 1,2,Y,Titer value < 1:10,NA,NA,N,0,Titer >= ISLLOQ,1,2021-11-03,2021-12-29,VACCINE A,VACCINE A,Y,1001,2022-04-27,2021-11-03T10:50:00,2021-12-30T09:10:00,2021-10-28,2022-04-27,NA,NA,1001,1328,"Potter, Harry",1947-09-21,74,YEARS,F,WHITE,NOT HISPANIC OR LATINO,VAXAB,VACCINE A VACCINE B,VAXAB,VACCINE A VACCINE B,USA,NA,NA,VACCINE A,VACCINE B,VACCINE A,VACCINE B,2021-11-03T10:50:00Z,2021-12-30T09:10:00Z,2021-11-03,2021-12-30,Y,White,>64,"NA",2021-11-03,2021-12-30,2021-11-03,2021-12-29,2021-12-30,2022-04-27
ABC,IS,ABC-1001,3,M0019LN,M0019LN Antibody,IMMUNOLOGY,>150,1/DIL,>150,NA,titer,NA,NA,LABNAME,SERUM,METHODNAME,Y,8,10,FIRST TREATMENT,2021-11,1,150,4,10,Visit 1,1,Visit 1 (Day 1),FIRST TREATMENT,2021-11-15,2021-11-03T10:50:00,Y,13,M0019LN,M0019LN Antibody,3,IMMUNOLOGY,4,8,150,titer,S+,2,ULOQ,VISIT 1,150,Y,Titer value >= 1:10,NA,NA,Y,1,Titer >= ISLLOQ,1,2021-11-03,2021-12-29,VACCINE A,VACCINE A,Y,1001,2022-04-27,2021-11-03T10:50:00,2021-12-30T09:10:00,2021-10-28,2022-04-27,NA,NA,1001,1328,"Potter, Harry",1947-09-21,74,YEARS,F,WHITE,NOT HISPANIC OR LATINO,VAXAB,VACCINE A VACCINE B,VAXAB,VACCINE A VACCINE B,USA,NA,NA,VACCINE A,VACCINE B,VACCINE A,VACCINE B,2021-11-03T10:50:00Z,2021-12-30T09:10:00Z,2021-11-03,2021-12-30,Y,White,>64,"NA",2021-11-03,2021-12-30,2021-11-03,2021-12-29,2021-12-30,2022-04-27
ABC,IS,ABC-1001,4,R0003MA,R0003MA Antibody,IMMUNOLOGY,140.5,1/DIL,140.5,140.5,titer,NA,NA,LABNAME,SERUM,METHODNAME,Y,4,10,FIRST TREATMENT,2021-11,1,120,8,10,Visit 1,1,Visit 1 (Day 1),FIRST TREATMENT,2021-11-15,2021-11-03T10:50:00,Y,13,R0003MA,R0003MA Antibody,4,IMMUNOLOGY,4,8,120,titer,S+,2,ULOQ,VISIT 1,120,Y,Titer value >= 1:10,NA,NA,Y,1,Titer >= ISLLOQ,1,2021-11-03,2021-12-29,VACCINE A,VACCINE A,Y,1001,2022-04-27,2021-11-03T10:50:00,2021-12-30T09:10:00,2021-10-28,2022-04-27,NA,NA,1001,1328,"Potter, Harry",1947-09-21,74,YEARS,F,WHITE,NOT HISPANIC OR LATINO,VAXAB,VACCINE A VACCINE B,VAXAB,VACCINE A VACCINE B,USA,NA,NA,VACCINE A,VACCINE B,VACCINE A,VACCINE B,2021-11-03T10:50:00Z,2021-12-30T09:10:00Z,2021-11-03,2021-12-30,Y,White,>64,"NA",2021-11-03,2021-12-30,2021-11-03,2021-12-29,2021-12-30,2022-04-27
ABC,IS,ABC-1001,5,J0033VN,J0033VN Antibody,IMMUNOLOGY,2,1/DIL,2,2,titer,NA,NA,LABNAME,SERUM,METHODNAME,NA,2,30,SECOND TREATMENT,2021-12,61,100,4,30,Visit 3,3,Visit 3 (Day 61),SECOND TREATMENT,2021-12-15,2021-11-03T10:50:00,Y,43,J0033VN,J0033VN Antibody,1,IMMUNOLOGY,4,8,2,titer,NA,NA,NA,VISIT 1,NA,NA,NA,NA,NA,Y,1,Titer >= ISLLOQ,1,2021-11-03,2021-12-29,VACCINE A,VACCINE A,Y,1001,2022-04-27,2021-11-03T10:50:00,2021-12-30T09:10:00,2021-10-28,2022-04-27,NA,NA,1001,1328,"Potter, Harry",1947-09-21,74,YEARS,F,WHITE,NOT HISPANIC OR LATINO,VAXAB,VACCINE A VACCINE B,VAXAB,VACCINE A VACCINE B,USA,NA,NA,VACCINE A,VACCINE B,VACCINE A,VACCINE B,2021-11-03T10:50:00Z,2021-12-30T09:10:00Z,2021-11-03,2021-12-30,Y,White,>64,"NA",2021-11-03,2021-12-30,2021-11-03,2021-12-29,2021-12-30,2022-04-27
ABC,IS,ABC-1001,6,I0019NT,I0019NT Antibody,IMMUNOLOGY,>200,1/DIL,>200,NA,titer,NA,NA,LABNAME,SERUM,METHODNAME,NA,4,30,SECOND TREATMENT,2021-12,61,200,5,30,Visit 3,3,Visit 3 (Day 61),SECOND TREATMENT,2021-12-15,2021-11-03T10:50:00,Y,43,I0019NT,I0019NT Antibody,2,IMMUNOLOGY,4,8,200,titer,NA,NA,ULOQ,VISIT 1,2,NA,Titer value < 1:10,198,100,Y,1,Titer >= ISLLOQ,1,2021-11-03,2021-12-29,VACCINE A,VACCINE A,Y,1001,2022-04-27,2021-11-03T10:50:00,2021-12-30T09:10:00,2021-10-28,2022-04-27,NA,NA,1001,1328,"Potter, Harry",1947-09-21,74,YEARS,F,WHITE,NOT HISPANIC OR LATINO,VAXAB,VACCINE A VACCINE B,VAXAB,VACCINE A VACCINE B,USA,NA,NA,VACCINE A,VACCINE B,VACCINE A,VACCINE B,2021-11-03T10:50:00Z,2021-12-30T09:10:00Z,2021-11-03,2021-12-30,Y,White,>64,"NA",2021-11-03,2021-12-30,2021-11-03,2021-12-29,2021-12-30,2022-04-27
ABC,IS,ABC-1001,7,M0019LN,M0019LN Antibody,IMMUNOLOGY,<2,1/DIL,<2,NA,titer,NA,NA,LABNAME,SERUM,METHODNAME,NA,8,30,SECOND TREATMENT,2021-12,61,150,4,30,Visit 3,3,Visit 3 (Day 61),SECOND TREATMENT,2021-12-15,2021-11-03T10:50:00,Y,43,M0019LN,M0019LN Antibody,3,IMMUNOLOGY,4,8,4,titer,NA,NA,HALFLLOQ,VISIT 1,150,NA,Titer value >= 1:10,-146,0.02666666666666667,N,0,Titer >= ISLLOQ,1,2021-11-03,2021-12-29,VACCINE A,VACCINE A,Y,1001,2022-04-27,2021-11-03T10:50:00,2021-12-30T09:10:00,2021-10-28,2022-04-27,NA,NA,1001,1328,"Potter, Harry",1947-09-21,74,YEARS,F,WHITE,NOT HISPANIC OR LATINO,VAXAB,VACCINE A VACCINE B,VAXAB,VACCINE A VACCINE B,USA,NA,NA,VACCINE A,VACCINE B,VACCINE A,VACCINE B,2021-11-03T10:50:00Z,2021-12-30T09:10:00Z,2021-11-03,2021-12-30,Y,White,>64,"NA",2021-11-03,2021-12-30,2021-11-03,2021-12-29,2021-12-30,2022-04-27
ABC,IS,ABC-1001,8,R0003MA,R0003MA Antibody,IMMUNOLOGY,98.2,1/DIL,98.2,98.2,titer,NA,NA,LABNAME,SERUM,METHODNAME,NA,4,30,SECOND TREATMENT,2021-12,61,120,8,30,Visit 3,3,Visit 3 (Day 61),SECOND TREATMENT,2021-12-15,2021-11-03T10:50:00,Y,43,R0003MA,R0003MA Antibody,4,IMMUNOLOGY,4,8,98.2,titer,NA,NA,NA,VISIT 1,120,NA,Titer value >= 1:10,-21.799999999999997,0.8183333333333334,Y,1,Titer >= ISLLOQ,1,2021-11-03,2021-12-29,VACCINE A,VACCINE A,Y,1001,2022-04-27,2021-11-03T10:50:00,2021-12-30T09:10:00,2021-10-28,2022-04-27,NA,NA,1001,1328,"Potter, Harry",1947-09-21,74,YEARS,F,WHITE,NOT HISPANIC OR LATINO,VAXAB,VACCINE A VACCINE B,VAXAB,VACCINE A VACCINE B,USA,NA,NA,VACCINE A,VACCINE B,VACCINE A,VACCINE B,2021-11-03T10:50:00Z,2021-12-30T09:10:00Z,2021-11-03,2021-12-30,Y,White,>64,"NA",2021-11-03,2021-12-30,2021-11-03,2021-12-29,2021-12-30,2022-04-27
ABC,IS,ABC-1002,NA,J0033VN,J0033VN Antibody,IMMUNOLOGY,>100,1/DIL,>100,NA,titer,NA,NA,LABNAME,SERUM,METHODNAME,NA,2,30,SECOND TREATMENT,2021,61,100,4,30,Visit 3,3,Visit 3 (Day 61),SECOND TREATMENT,2021-06-30,2021-10-07T12:48:00,Y,-99,J0033VNF,4FOLD (J0033VN Antibody),21,IMMUNOLOGY,4,8,100,titer,NA,NA,NA,VISIT 1,3,NA,Titer value < 1:10,97,33.333333333333336,Y,1,Titer >= ISLLOQ,NA,NA,NA,NA,NA,Y,1002,2022-06-14,2021-10-07T12:48:00,2021-12-16T12:41:00,2021-09-22,2022-06-14,NA,NA,1002,1212,"Gomez, Selena",1951-07-13,70,YEARS,F,BLACK OR AFRICAN AMERICAN,HISPANIC OR LATINO,VAXAB,VACCINE A VACCINE B,VAXAB,VACCINE A VACCINE B,USA,NA,NA,VACCINE A,VACCINE B,VACCINE A,VACCINE B,2021-10-07T12:48:00Z,2021-12-16T12:41:00Z,2021-10-07,2021-12-16,Y,Non-white,>64,"NA",2021-10-07,2021-12-16,2021-10-07,2021-12-15,2021-12-16,2022-06-14
ABC,IS,ABC-1002,NA,I0019NT,I0019NT Antibody,IMMUNOLOGY,<2,1/DIL,<2,NA,titer,NA,NA,LABNAME,SERUM,METHODNAME,NA,4,30,SECOND TREATMENT,2021,61,200,5,30,Visit 3,3,Visit 3 (Day 61),SECOND TREATMENT,2021-06-30,2021-10-07T12:48:00,Y,-99,I0019NTF,4FOLD (I0019NT Antibody),22,IMMUNOLOGY,4,8,4,titer,NA,NA,NA,VISIT 1,NA,NA,NA,NA,NA,Y,1,Titer >= ISLLOQ,NA,NA,NA,NA,NA,Y,1002,2022-06-14,2021-10-07T12:48:00,2021-12-16T12:41:00,2021-09-22,2022-06-14,NA,NA,1002,1212,"Gomez, Selena",1951-07-13,70,YEARS,F,BLACK OR AFRICAN AMERICAN,HISPANIC OR LATINO,VAXAB,VACCINE A VACCINE B,VAXAB,VACCINE A VACCINE B,USA,NA,NA,VACCINE A,VACCINE B,VACCINE A,VACCINE B,2021-10-07T12:48:00Z,2021-12-16T12:41:00Z,2021-10-07,2021-12-16,Y,Non-white,>64,"NA",2021-10-07,2021-12-16,2021-10-07,2021-12-15,2021-12-16,2022-06-14
ABC,IS,ABC-1002,NA,M0019LN,M0019LN Antibody,IMMUNOLOGY,5,1/DIL,5,5,titer,NA,NA,LABNAME,SERUM,METHODNAME,NA,8,30,SECOND TREATMENT,2021,61,150,4,30,Visit 3,3,Visit 3 (Day 61),SECOND TREATMENT,2021-06-30,2021-10-07T12:48:00,Y,-99,M0019LNF,4FOLD (M0019LN Antibody),23,IMMUNOLOGY,4,8,8,titer,NA,NA,NA,VISIT 1,8,NA,Titer value < 1:10,0,1,Y,1,Titer >= ISLLOQ,NA,NA,NA,NA,NA,Y,1002,2022-06-14,2021-10-07T12:48:00,2021-12-16T12:41:00,2021-09-22,2022-06-14,NA,NA,1002,1212,"Gomez, Selena",1951-07-13,70,YEARS,F,BLACK OR AFRICAN AMERICAN,HISPANIC OR LATINO,VAXAB,VACCINE A VACCINE B,VAXAB,VACCINE A VACCINE B,USA,NA,NA,VACCINE A,VACCINE B,VACCINE A,VACCINE B,2021-10-07T12:48:00Z,2021-12-16T12:41:00Z,2021-10-07,2021-12-16,Y,Non-white,>64,"NA",2021-10-07,2021-12-16,2021-10-07,2021-12-15,2021-12-16,2022-06-14
ABC,IS,ABC-1002,NA,R0003MA,R0003MA Antibody,IMMUNOLOGY,228.1,1/DIL,228.1,228.1,titer,NA,NA,LABNAME,SERUM,METHODNAME,NA,4,30,SECOND TREATMENT,2021,61,120,8,30,Visit 3,3,Visit 3 (Day 61),SECOND TREATMENT,2021-06-30,2021-10-07T12:48:00,Y,-99,R0003MAF,4FOLD (R0003MA Antibody),24,IMMUNOLOGY,4,8,120,titer,NA,NA,NA,VISIT 1,48.9,NA,Titer value >= 1:10,71.1,2.4539877300613497,Y,1,Titer >= ISLLOQ,NA,NA,NA,NA,NA,Y,1002,2022-06-14,2021-10-07T12:48:00,2021-12-16T12:41:00,2021-09-22,2022-06-14,NA,NA,1002,1212,"Gomez, Selena",1951-07-13,70,YEARS,F,BLACK OR AFRICAN AMERICAN,HISPANIC OR LATINO,VAXAB,VACCINE A VACCINE B,VAXAB,VACCINE A VACCINE B,USA,NA,NA,VACCINE A,VACCINE B,VACCINE A,VACCINE B,2021-10-07T12:48:00Z,2021-12-16T12:41:00Z,2021-10-07,2021-12-16,Y,Non-white,>64,"NA",2021-10-07,2021-12-16,2021-10-07,2021-12-15,2021-12-16,2022-06-14
ABC,IS,ABC-1002,NA,J0033VN,J0033VN Antibody,IMMUNOLOGY,3,1/DIL,3,3,titer,NA,NA,LABNAME,SERUM,METHODNAME,Y,2,10,FIRST TREATMENT,2021,1,100,4,10,Visit 1,1,Visit 1 (Day 1),FIRST TREATMENT,2021-06-30,2021-10-07T12:48:00,Y,-99,J0033VNF,4FOLD (J0033VN Antibody),21,IMMUNOLOGY,4,8,3,titer,S+,2,NA,VISIT 1,3,Y,Titer value < 1:10,NA,NA,Y,1,Titer >= ISLLOQ,NA,NA,NA,NA,NA,Y,1002,2022-06-14,2021-10-07T12:48:00,2021-12-16T12:41:00,2021-09-22,2022-06-14,NA,NA,1002,1212,"Gomez, Selena",1951-07-13,70,YEARS,F,BLACK OR AFRICAN AMERICAN,HISPANIC OR LATINO,VAXAB,VACCINE A VACCINE B,VAXAB,VACCINE A VACCINE B,USA,NA,NA,VACCINE A,VACCINE B,VACCINE A,VACCINE B,2021-10-07T12:48:00Z,2021-12-16T12:41:00Z,2021-10-07,2021-12-16,Y,Non-white,>64,"NA",2021-10-07,2021-12-16,2021-10-07,2021-12-15,2021-12-16,2022-06-14
ABC,IS,ABC-1002,NA,I0019NT,I0019NT Antibody,IMMUNOLOGY,NA,NA,NA,NA,NA,NOT DONE,INVALID RESULT,LABNAME,SERUM,METHODNAME,Y,4,10,FIRST TREATMENT,NA,NA,200,5,10,Visit 1,1,Visit 1 (Day 1),FIRST TREATMENT,NA,2021-10-07T12:48:00,Y,NA,I0019NTF,4FOLD (I0019NT Antibody),22,IMMUNOLOGY,4,8,NA,NA,UNKNOWN,3,NA,VISIT 1,NA,NA,NA,NA,NA,NA,NA,NA,NA,NA,NA,NA,NA,Y,1002,2022-06-14,2021-10-07T12:48:00,2021-12-16T12:41:00,2021-09-22,2022-06-14,NA,NA,1002,1212,"Gomez, Selena",1951-07-13,70,YEARS,F,BLACK OR AFRICAN AMERICAN,HISPANIC OR LATINO,VAXAB,VACCINE A VACCINE B,VAXAB,VACCINE A VACCINE B,USA,NA,NA,VACCINE A,VACCINE B,VACCINE A,VACCINE B,2021-10-07T12:48:00Z,2021-12-16T12:41:00Z,2021-10-07,2021-12-16,Y,Non-white,>64,"NA",2021-10-07,2021-12-16,2021-10-07,2021-12-15,2021-12-16,2022-06-14
ABC,IS,ABC-1002,NA,M0019LN,M0019LN Antibody,IMMUNOLOGY,<2,1/DIL,<2,NA,titer,NA,NA,LABNAME,SERUM,METHODNAME,Y,8,10,FIRST TREATMENT,2021,1,150,4,10,Visit 1,1,Visit 1 (Day 1),FIRST TREATMENT,2021-06-30,2021-10-07T12:48:00,Y,-99,M0019LNF,4FOLD (M0019LN Antibody),23,IMMUNOLOGY,4,8,8,titer,S+,2,NA,VISIT 1,8,Y,Titer value < 1:10,NA,NA,Y,1,Titer >= ISLLOQ,NA,NA,NA,NA,NA,Y,1002,2022-06-14,2021-10-07T12:48:00,2021-12-16T12:41:00,2021-09-22,2022-06-14,NA,NA,1002,1212,"Gomez, Selena",1951-07-13,70,YEARS,F,BLACK OR AFRICAN AMERICAN,HISPANIC OR LATINO,VAXAB,VACCINE A VACCINE B,VAXAB,VACCINE A VACCINE B,USA,NA,NA,VACCINE A,VACCINE B,VACCINE A,VACCINE B,2021-10-07T12:48:00Z,2021-12-16T12:41:00Z,2021-10-07,2021-12-16,Y,Non-white,>64,"NA",2021-10-07,2021-12-16,2021-10-07,2021-12-15,2021-12-16,2022-06-14
ABC,IS,ABC-1002,NA,R0003MA,R0003MA Antibody,IMMUNOLOGY,48.9,1/DIL,48.9,48.9,titer,NA,NA,LABNAME,SERUM,METHODNAME,Y,4,10,FIRST TREATMENT,2021,1,120,8,10,Visit 1,1,Visit 1 (Day 1),FIRST TREATMENT,2021-06-30,2021-10-07T12:48:00,Y,-99,R0003MAF,4FOLD (R0003MA Antibody),24,IMMUNOLOGY,4,8,48.9,titer,S+,2,NA,VISIT 1,48.9,Y,Titer value >= 1:10,NA,NA,Y,1,Titer >= ISLLOQ,NA,NA,NA,NA,NA,Y,1002,2022-06-14,2021-10-07T12:48:00,2021-12-16T12:41:00,2021-09-22,2022-06-14,NA,NA,1002,1212,"Gomez, Selena",1951-07-13,70,YEARS,F,BLACK OR AFRICAN AMERICAN,HISPANIC OR LATINO,VAXAB,VACCINE A VACCINE B,VAXAB,VACCINE A VACCINE B,USA,NA,NA,VACCINE A,VACCINE B,VACCINE A,VACCINE B,2021-10-07T12:48:00Z,2021-12-16T12:41:00Z,2021-10-07,2021-12-16,Y,Non-white,>64,"NA",2021-10-07,2021-12-16,2021-10-07,2021-12-15,2021-12-16,2022-06-14
ABC,IS,ABC-1002,NA,J0033VN,J0033VN Antibody,IMMUNOLOGY,>100,1/DIL,>100,NA,titer,NA,NA,LABNAME,SERUM,METHODNAME,NA,2,30,SECOND TREATMENT,2021,61,100,4,30,Visit 3,3,Visit 3 (Day 61),SECOND TREATMENT,2021-06-30,2021-10-07T12:48:00,Y,-99,J0033VNL,LOG10 (J0033VN Antibody),11,IMMUNOLOGY,4,8,2,titer,NA,NA,ULOQ,VISIT 1,0.48,NA,Titer value < 1:10,1.52,4.166666666666667,Y,1,Titer >= ISLLOQ,NA,NA,NA,NA,NA,Y,1002,2022-06-14,2021-10-07T12:48:00,2021-12-16T12:41:00,2021-09-22,2022-06-14,NA,NA,1002,1212,"Gomez, Selena",1951-07-13,70,YEARS,F,BLACK OR AFRICAN AMERICAN,HISPANIC OR LATINO,VAXAB,VACCINE A VACCINE B,VAXAB,VACCINE A VACCINE B,USA,NA,NA,VACCINE A,VACCINE B,VACCINE A,VACCINE B,2021-10-07T12:48:00Z,2021-12-16T12:41:00Z,2021-10-07,2021-12-16,Y,Non-white,>64,"NA",2021-10-07,2021-12-16,2021-10-07,2021-12-15,2021-12-16,2022-06-14
ABC,IS,ABC-1002,NA,I0019NT,I0019NT Antibody,IMMUNOLOGY,<2,1/DIL,<2,NA,titer,NA,NA,LABNAME,SERUM,METHODNAME,NA,4,30,SECOND TREATMENT,2021,61,200,5,30,Visit 3,3,Visit 3 (Day 61),SECOND TREATMENT,2021-06-30,2021-10-07T12:48:00,Y,-99,I0019NTL,LOG10 (I0019NT Antibody),12,IMMUNOLOGY,4,8,0.3,titer,NA,NA,HALFLLOQ,VISIT 1,NA,NA,NA,NA,NA,N,0,Titer >= ISLLOQ,NA,NA,NA,NA,NA,Y,1002,2022-06-14,2021-10-07T12:48:00,2021-12-16T12:41:00,2021-09-22,2022-06-14,NA,NA,1002,1212,"Gomez, Selena",1951-07-13,70,YEARS,F,BLACK OR AFRICAN AMERICAN,HISPANIC OR LATINO,VAXAB,VACCINE A VACCINE B,VAXAB,VACCINE A VACCINE B,USA,NA,NA,VACCINE A,VACCINE B,VACCINE A,VACCINE B,2021-10-07T12:48:00Z,2021-12-16T12:41:00Z,2021-10-07,2021-12-16,Y,Non-white,>64,"NA",2021-10-07,2021-12-16,2021-10-07,2021-12-15,2021-12-16,2022-06-14
ABC,IS,ABC-1002,NA,M0019LN,M0019LN Antibody,IMMUNOLOGY,5,1/DIL,5,5,titer,NA,NA,LABNAME,SERUM,METHODNAME,NA,8,30,SECOND TREATMENT,2021,61,150,4,30,Visit 3,3,Visit 3 (Day 61),SECOND TREATMENT,2021-06-30,2021-10-07T12:48:00,Y,-99,M0019LNL,LOG10 (M0019LN Antibody),13,IMMUNOLOGY,4,8,0.6,titer,NA,NA,HALFLLOQ,VISIT 1,0.6,NA,Titer value < 1:10,0,1,N,0,Titer >= ISLLOQ,NA,NA,NA,NA,NA,Y,1002,2022-06-14,2021-10-07T12:48:00,2021-12-16T12:41:00,2021-09-22,2022-06-14,NA,NA,1002,1212,"Gomez, Selena",1951-07-13,70,YEARS,F,BLACK OR AFRICAN AMERICAN,HISPANIC OR LATINO,VAXAB,VACCINE A VACCINE B,VAXAB,VACCINE A VACCINE B,USA,NA,NA,VACCINE A,VACCINE B,VACCINE A,VACCINE B,2021-10-07T12:48:00Z,2021-12-16T12:41:00Z,2021-10-07,2021-12-16,Y,Non-white,>64,"NA",2021-10-07,2021-12-16,2021-10-07,2021-12-15,2021-12-16,2022-06-14
ABC,IS,ABC-1002,NA,R0003MA,R0003MA Antibody,IMMUNOLOGY,228.1,1/DIL,228.1,228.1,titer,NA,NA,LABNAME,SERUM,METHODNAME,NA,4,30,SECOND TREATMENT,2021,61,120,8,30,Visit 3,3,Visit 3 (Day 61),SECOND TREATMENT,2021-06-30,2021-10-07T12:48:00,Y,-99,R0003MAL,LOG10 (R0003MA Antibody),14,IMMUNOLOGY,4,8,2.08,titer,NA,NA,ULOQ,VISIT 1,1.69,NA,Titer value < 1:10,0.3900000000000001,1.2307692307692308,N,0,Titer >= ISLLOQ,NA,NA,NA,NA,NA,Y,1002,2022-06-14,2021-10-07T12:48:00,2021-12-16T12:41:00,2021-09-22,2022-06-14,NA,NA,1002,1212,"Gomez, Selena",1951-07-13,70,YEARS,F,BLACK OR AFRICAN AMERICAN,HISPANIC OR LATINO,VAXAB,VACCINE A VACCINE B,VAXAB,VACCINE A VACCINE B,USA,NA,NA,VACCINE A,VACCINE B,VACCINE A,VACCINE B,2021-10-07T12:48:00Z,2021-12-16T12:41:00Z,2021-10-07,2021-12-16,Y,Non-white,>64,"NA",2021-10-07,2021-12-16,2021-10-07,2021-12-15,2021-12-16,2022-06-14
ABC,IS,ABC-1002,NA,J0033VN,J0033VN Antibody,IMMUNOLOGY,3,1/DIL,3,3,titer,NA,NA,LABNAME,SERUM,METHODNAME,Y,2,10,FIRST TREATMENT,2021,1,100,4,10,Visit 1,1,Visit 1 (Day 1),FIRST TREATMENT,2021-06-30,2021-10-07T12:48:00,Y,-99,J0033VNL,LOG10 (J0033VN Antibody),11,IMMUNOLOGY,4,8,0.48,titer,S-,1,NA,VISIT 1,0.48,Y,Titer value < 1:10,NA,NA,N,0,Titer >= ISLLOQ,NA,NA,NA,NA,NA,Y,1002,2022-06-14,2021-10-07T12:48:00,2021-12-16T12:41:00,2021-09-22,2022-06-14,NA,NA,1002,1212,"Gomez, Selena",1951-07-13,70,YEARS,F,BLACK OR AFRICAN AMERICAN,HISPANIC OR LATINO,VAXAB,VACCINE A VACCINE B,VAXAB,VACCINE A VACCINE B,USA,NA,NA,VACCINE A,VACCINE B,VACCINE A,VACCINE B,2021-10-07T12:48:00Z,2021-12-16T12:41:00Z,2021-10-07,2021-12-16,Y,Non-white,>64,"NA",2021-10-07,2021-12-16,2021-10-07,2021-12-15,2021-12-16,2022-06-14
ABC,IS,ABC-1002,NA,I0019NT,I0019NT Antibody,IMMUNOLOGY,NA,NA,NA,NA,NA,NOT DONE,INVALID RESULT,LABNAME,SERUM,METHODNAME,Y,4,10,FIRST TREATMENT,NA,NA,200,5,10,Visit 1,1,Visit 1 (Day 1),FIRST TREATMENT,NA,2021-10-07T12:48:00,Y,NA,I0019NTL,LOG10 (I0019NT Antibody),12,IMMUNOLOGY,4,8,NA,NA,UNKNOWN,3,NA,VISIT 1,NA,NA,NA,NA,NA,NA,NA,NA,NA,NA,NA,NA,NA,Y,1002,2022-06-14,2021-10-07T12:48:00,2021-12-16T12:41:00,2021-09-22,2022-06-14,NA,NA,1002,1212,"Gomez, Selena",1951-07-13,70,YEARS,F,BLACK OR AFRICAN AMERICAN,HISPANIC OR LATINO,VAXAB,VACCINE A VACCINE B,VAXAB,VACCINE A VACCINE B,USA,NA,NA,VACCINE A,VACCINE B,VACCINE A,VACCINE B,2021-10-07T12:48:00Z,2021-12-16T12:41:00Z,2021-10-07,2021-12-16,Y,Non-white,>64,"NA",2021-10-07,2021-12-16,2021-10-07,2021-12-15,2021-12-16,2022-06-14
ABC,IS,ABC-1002,NA,M0019LN,M0019LN Antibody,IMMUNOLOGY,<2,1/DIL,<2,NA,titer,NA,NA,LABNAME,SERUM,METHODNAME,Y,8,10,FIRST TREATMENT,2021,1,150,4,10,Visit 1,1,Visit 1 (Day 1),FIRST TREATMENT,2021-06-30,2021-10-07T12:48:00,Y,-99,M0019LNL,LOG10 (M0019LN Antibody),13,IMMUNOLOGY,4,8,0.6,titer,S-,1,HALFLLOQ,VISIT 1,0.6,Y,Titer value < 1:10,NA,NA,N,0,Titer >= ISLLOQ,NA,NA,NA,NA,NA,Y,1002,2022-06-14,2021-10-07T12:48:00,2021-12-16T12:41:00,2021-09-22,2022-06-14,NA,NA,1002,1212,"Gomez, Selena",1951-07-13,70,YEARS,F,BLACK OR AFRICAN AMERICAN,HISPANIC OR LATINO,VAXAB,VACCINE A VACCINE B,VAXAB,VACCINE A VACCINE B,USA,NA,NA,VACCINE A,VACCINE B,VACCINE A,VACCINE B,2021-10-07T12:48:00Z,2021-12-16T12:41:00Z,2021-10-07,2021-12-16,Y,Non-white,>64,"NA",2021-10-07,2021-12-16,2021-10-07,2021-12-15,2021-12-16,2022-06-14
ABC,IS,ABC-1002,NA,R0003MA,R0003MA Antibody,IMMUNOLOGY,48.9,1/DIL,48.9,48.9,titer,NA,NA,LABNAME,SERUM,METHODNAME,Y,4,10,FIRST TREATMENT,2021,1,120,8,10,Visit 1,1,Visit 1 (Day 1),FIRST TREATMENT,2021-06-30,2021-10-07T12:48:00,Y,-99,R0003MAL,LOG10 (R0003MA Antibody),14,IMMUNOLOGY,4,8,1.69,titer,S-,1,NA,VISIT 1,1.69,Y,Titer value < 1:10,NA,NA,N,0,Titer >= ISLLOQ,NA,NA,NA,NA,NA,Y,1002,2022-06-14,2021-10-07T12:48:00,2021-12-16T12:41:00,2021-09-22,2022-06-14,NA,NA,1002,1212,"Gomez, Selena",1951-07-13,70,YEARS,F,BLACK OR AFRICAN AMERICAN,HISPANIC OR LATINO,VAXAB,VACCINE A VACCINE B,VAXAB,VACCINE A VACCINE B,USA,NA,NA,VACCINE A,VACCINE B,VACCINE A,VACCINE B,2021-10-07T12:48:00Z,2021-12-16T12:41:00Z,2021-10-07,2021-12-16,Y,Non-white,>64,"NA",2021-10-07,2021-12-16,2021-10-07,2021-12-15,2021-12-16,2022-06-14
ABC,IS,ABC-1002,NA,J0033VN,J0033VN Antibody,IMMUNOLOGY,>100,1/DIL,>100,NA,titer,NA,NA,LABNAME,SERUM,METHODNAME,NA,2,30,SECOND TREATMENT,2021,61,100,4,30,Visit 3,3,Visit 3 (Day 61),SECOND TREATMENT,2021-06-30,2021-10-07T12:48:00,Y,-99,J0033VLF,LOG10 4FOLD (J0033VN Antibody),31,IMMUNOLOGY,4,8,2,titer,NA,NA,NA,VISIT 1,0.48,NA,Titer value < 1:10,1.52,4.166666666666667,Y,1,Titer >= ISLLOQ,NA,NA,NA,NA,NA,Y,1002,2022-06-14,2021-10-07T12:48:00,2021-12-16T12:41:00,2021-09-22,2022-06-14,NA,NA,1002,1212,"Gomez, Selena",1951-07-13,70,YEARS,F,BLACK OR AFRICAN AMERICAN,HISPANIC OR LATINO,VAXAB,VACCINE A VACCINE B,VAXAB,VACCINE A VACCINE B,USA,NA,NA,VACCINE A,VACCINE B,VACCINE A,VACCINE B,2021-10-07T12:48:00Z,2021-12-16T12:41:00Z,2021-10-07,2021-12-16,Y,Non-white,>64,"NA",2021-10-07,2021-12-16,2021-10-07,2021-12-15,2021-12-16,2022-06-14
ABC,IS,ABC-1002,NA,I0019NT,I0019NT Antibody,IMMUNOLOGY,<2,1/DIL,<2,NA,titer,NA,NA,LABNAME,SERUM,METHODNAME,NA,4,30,SECOND TREATMENT,2021,61,200,5,30,Visit 3,3,Visit 3 (Day 61),SECOND TREATMENT,2021-06-30,2021-10-07T12:48:00,Y,-99,I0019NLF,LOG10 4FOLD (I0019NT Antibody),32,IMMUNOLOGY,4,8,0.6,titer,NA,NA,NA,VISIT 1,NA,NA,NA,NA,NA,N,0,Titer >= ISLLOQ,NA,NA,NA,NA,NA,Y,1002,2022-06-14,2021-10-07T12:48:00,2021-12-16T12:41:00,2021-09-22,2022-06-14,NA,NA,1002,1212,"Gomez, Selena",1951-07-13,70,YEARS,F,BLACK OR AFRICAN AMERICAN,HISPANIC OR LATINO,VAXAB,VACCINE A VACCINE B,VAXAB,VACCINE A VACCINE B,USA,NA,NA,VACCINE A,VACCINE B,VACCINE A,VACCINE B,2021-10-07T12:48:00Z,2021-12-16T12:41:00Z,2021-10-07,2021-12-16,Y,Non-white,>64,"NA",2021-10-07,2021-12-16,2021-10-07,2021-12-15,2021-12-16,2022-06-14
ABC,IS,ABC-1002,NA,M0019LN,M0019LN Antibody,IMMUNOLOGY,5,1/DIL,5,5,titer,NA,NA,LABNAME,SERUM,METHODNAME,NA,8,30,SECOND TREATMENT,2021,61,150,4,30,Visit 3,3,Visit 3 (Day 61),SECOND TREATMENT,2021-06-30,2021-10-07T12:48:00,Y,-99,M0019LLF,LOG10 4FOLD (M0019LN Antibody),33,IMMUNOLOGY,4,8,0.9,titer,NA,NA,NA,VISIT 1,0.9,NA,Titer value < 1:10,0,1,N,0,Titer >= ISLLOQ,NA,NA,NA,NA,NA,Y,1002,2022-06-14,2021-10-07T12:48:00,2021-12-16T12:41:00,2021-09-22,2022-06-14,NA,NA,1002,1212,"Gomez, Selena",1951-07-13,70,YEARS,F,BLACK OR AFRICAN AMERICAN,HISPANIC OR LATINO,VAXAB,VACCINE A VACCINE B,VAXAB,VACCINE A VACCINE B,USA,NA,NA,VACCINE A,VACCINE B,VACCINE A,VACCINE B,2021-10-07T12:48:00Z,2021-12-16T12:41:00Z,2021-10-07,2021-12-16,Y,Non-white,>64,"NA",2021-10-07,2021-12-16,2021-10-07,2021-12-15,2021-12-16,2022-06-14
ABC,IS,ABC-1002,NA,R0003MA,R0003MA Antibody,IMMUNOLOGY,228.1,1/DIL,228.1,228.1,titer,NA,NA,LABNAME,SERUM,METHODNAME,NA,4,30,SECOND TREATMENT,2021,61,120,8,30,Visit 3,3,Visit 3 (Day 61),SECOND TREATMENT,2021-06-30,2021-10-07T12:48:00,Y,-99,R0003MLF,LOG10 4FOLD (R0003MA Antibody),34,IMMUNOLOGY,4,8,2.08,titer,NA,NA,NA,VISIT 1,1.69,NA,Titer value < 1:10,0.3900000000000001,1.2307692307692308,N,0,Titer >= ISLLOQ,NA,NA,NA,NA,NA,Y,1002,2022-06-14,2021-10-07T12:48:00,2021-12-16T12:41:00,2021-09-22,2022-06-14,NA,NA,1002,1212,"Gomez, Selena",1951-07-13,70,YEARS,F,BLACK OR AFRICAN AMERICAN,HISPANIC OR LATINO,VAXAB,VACCINE A VACCINE B,VAXAB,VACCINE A VACCINE B,USA,NA,NA,VACCINE A,VACCINE B,VACCINE A,VACCINE B,2021-10-07T12:48:00Z,2021-12-16T12:41:00Z,2021-10-07,2021-12-16,Y,Non-white,>64,"NA",2021-10-07,2021-12-16,2021-10-07,2021-12-15,2021-12-16,2022-06-14
ABC,IS,ABC-1002,NA,J0033VN,J0033VN Antibody,IMMUNOLOGY,3,1/DIL,3,3,titer,NA,NA,LABNAME,SERUM,METHODNAME,Y,2,10,FIRST TREATMENT,2021,1,100,4,10,Visit 1,1,Visit 1 (Day 1),FIRST TREATMENT,2021-06-30,2021-10-07T12:48:00,Y,-99,J0033VLF,LOG10 4FOLD (J0033VN Antibody),31,IMMUNOLOGY,4,8,0.48,titer,S-,1,NA,VISIT 1,0.48,Y,Titer value < 1:10,NA,NA,N,0,Titer >= ISLLOQ,NA,NA,NA,NA,NA,Y,1002,2022-06-14,2021-10-07T12:48:00,2021-12-16T12:41:00,2021-09-22,2022-06-14,NA,NA,1002,1212,"Gomez, Selena",1951-07-13,70,YEARS,F,BLACK OR AFRICAN AMERICAN,HISPANIC OR LATINO,VAXAB,VACCINE A VACCINE B,VAXAB,VACCINE A VACCINE B,USA,NA,NA,VACCINE A,VACCINE B,VACCINE A,VACCINE B,2021-10-07T12:48:00Z,2021-12-16T12:41:00Z,2021-10-07,2021-12-16,Y,Non-white,>64,"NA",2021-10-07,2021-12-16,2021-10-07,2021-12-15,2021-12-16,2022-06-14
ABC,IS,ABC-1002,NA,I0019NT,I0019NT Antibody,IMMUNOLOGY,NA,NA,NA,NA,NA,NOT DONE,INVALID RESULT,LABNAME,SERUM,METHODNAME,Y,4,10,FIRST TREATMENT,NA,NA,200,5,10,Visit 1,1,Visit 1 (Day 1),FIRST TREATMENT,NA,2021-10-07T12:48:00,Y,NA,I0019NLF,LOG10 4FOLD (I0019NT Antibody),32,IMMUNOLOGY,4,8,NA,NA,UNKNOWN,3,NA,VISIT 1,NA,NA,NA,NA,NA,NA,NA,NA,NA,NA,NA,NA,NA,Y,1002,2022-06-14,2021-10-07T12:48:00,2021-12-16T12:41:00,2021-09-22,2022-06-14,NA,NA,1002,1212,"Gomez, Selena",1951-07-13,70,YEARS,F,BLACK OR AFRICAN AMERICAN,HISPANIC OR LATINO,VAXAB,VACCINE A VACCINE B,VAXAB,VACCINE A VACCINE B,USA,NA,NA,VACCINE A,VACCINE B,VACCINE A,VACCINE B,2021-10-07T12:48:00Z,2021-12-16T12:41:00Z,2021-10-07,2021-12-16,Y,Non-white,>64,"NA",2021-10-07,2021-12-16,2021-10-07,2021-12-15,2021-12-16,2022-06-14
ABC,IS,ABC-1002,NA,M0019LN,M0019LN Antibody,IMMUNOLOGY,<2,1/DIL,<2,NA,titer,NA,NA,LABNAME,SERUM,METHODNAME,Y,8,10,FIRST TREATMENT,2021,1,150,4,10,Visit 1,1,Visit 1 (Day 1),FIRST TREATMENT,2021-06-30,2021-10-07T12:48:00,Y,-99,M0019LLF,LOG10 4FOLD (M0019LN Antibody),33,IMMUNOLOGY,4,8,0.9,titer,S-,1,NA,VISIT 1,0.9,Y,Titer value < 1:10,NA,NA,N,0,Titer >= ISLLOQ,NA,NA,NA,NA,NA,Y,1002,2022-06-14,2021-10-07T12:48:00,2021-12-16T12:41:00,2021-09-22,2022-06-14,NA,NA,1002,1212,"Gomez, Selena",1951-07-13,70,YEARS,F,BLACK OR AFRICAN AMERICAN,HISPANIC OR LATINO,VAXAB,VACCINE A VACCINE B,VAXAB,VACCINE A VACCINE B,USA,NA,NA,VACCINE A,VACCINE B,VACCINE A,VACCINE B,2021-10-07T12:48:00Z,2021-12-16T12:41:00Z,2021-10-07,2021-12-16,Y,Non-white,>64,"NA",2021-10-07,2021-12-16,2021-10-07,2021-12-15,2021-12-16,2022-06-14
ABC,IS,ABC-1002,NA,R0003MA,R0003MA Antibody,IMMUNOLOGY,48.9,1/DIL,48.9,48.9,titer,NA,NA,LABNAME,SERUM,METHODNAME,Y,4,10,FIRST TREATMENT,2021,1,120,8,10,Visit 1,1,Visit 1 (Day 1),FIRST TREATMENT,2021-06-30,2021-10-07T12:48:00,Y,-99,R0003MLF,LOG10 4FOLD (R0003MA Antibody),34,IMMUNOLOGY,4,8,1.69,titer,S-,1,NA,VISIT 1,1.69,Y,Titer value < 1:10,NA,NA,N,0,Titer >= ISLLOQ,NA,NA,NA,NA,NA,Y,1002,2022-06-14,2021-10-07T12:48:00,2021-12-16T12:41:00,2021-09-22,2022-06-14,NA,NA,1002,1212,"Gomez, Selena",1951-07-13,70,YEARS,F,BLACK OR AFRICAN AMERICAN,HISPANIC OR LATINO,VAXAB,VACCINE A VACCINE B,VAXAB,VACCINE A VACCINE B,USA,NA,NA,VACCINE A,VACCINE B,VACCINE A,VACCINE B,2021-10-07T12:48:00Z,2021-12-16T12:41:00Z,2021-10-07,2021-12-16,Y,Non-white,>64,"NA",2021-10-07,2021-12-16,2021-10-07,2021-12-15,2021-12-16,2022-06-14
ABC,IS,ABC-1002,1,J0033VN,J0033VN Antibody,IMMUNOLOGY,3,1/DIL,3,3,titer,NA,NA,LABNAME,SERUM,METHODNAME,Y,2,10,FIRST TREATMENT,2021,1,100,4,10,Visit 1,1,Visit 1 (Day 1),FIRST TREATMENT,2021-06-30,2021-10-07T12:48:00,Y,-99,J0033VN,J0033VN Antibody,1,IMMUNOLOGY,4,8,3,titer,S+,2,NA,VISIT 1,3,Y,Titer value < 1:10,NA,NA,Y,1,Titer >= ISLLOQ,NA,NA,NA,NA,NA,Y,1002,2022-06-14,2021-10-07T12:48:00,2021-12-16T12:41:00,2021-09-22,2022-06-14,NA,NA,1002,1212,"Gomez, Selena",1951-07-13,70,YEARS,F,BLACK OR AFRICAN AMERICAN,HISPANIC OR LATINO,VAXAB,VACCINE A VACCINE B,VAXAB,VACCINE A VACCINE B,USA,NA,NA,VACCINE A,VACCINE B,VACCINE A,VACCINE B,2021-10-07T12:48:00Z,2021-12-16T12:41:00Z,2021-10-07,2021-12-16,Y,Non-white,>64,"NA",2021-10-07,2021-12-16,2021-10-07,2021-12-15,2021-12-16,2022-06-14
ABC,IS,ABC-1002,2,I0019NT,I0019NT Antibody,IMMUNOLOGY,NA,NA,NA,NA,NA,NOT DONE,INVALID RESULT,LABNAME,SERUM,METHODNAME,Y,4,10,FIRST TREATMENT,NA,NA,200,5,10,Visit 1,1,Visit 1 (Day 1),FIRST TREATMENT,NA,2021-10-07T12:48:00,Y,NA,I0019NT,I0019NT Antibody,2,IMMUNOLOGY,4,8,NA,NA,UNKNOWN,3,NA,VISIT 1,NA,NA,NA,NA,NA,NA,NA,NA,NA,NA,NA,NA,NA,Y,1002,2022-06-14,2021-10-07T12:48:00,2021-12-16T12:41:00,2021-09-22,2022-06-14,NA,NA,1002,1212,"Gomez, Selena",1951-07-13,70,YEARS,F,BLACK OR AFRICAN AMERICAN,HISPANIC OR LATINO,VAXAB,VACCINE A VACCINE B,VAXAB,VACCINE A VACCINE B,USA,NA,NA,VACCINE A,VACCINE B,VACCINE A,VACCINE B,2021-10-07T12:48:00Z,2021-12-16T12:41:00Z,2021-10-07,2021-12-16,Y,Non-white,>64,"NA",2021-10-07,2021-12-16,2021-10-07,2021-12-15,2021-12-16,2022-06-14
ABC,IS,ABC-1002,3,M0019LN,M0019LN Antibody,IMMUNOLOGY,<2,1/DIL,<2,NA,titer,NA,NA,LABNAME,SERUM,METHODNAME,Y,8,10,FIRST TREATMENT,2021,1,150,4,10,Visit 1,1,Visit 1 (Day 1),FIRST TREATMENT,2021-06-30,2021-10-07T12:48:00,Y,-99,M0019LN,M0019LN Antibody,3,IMMUNOLOGY,4,8,4,titer,S-,1,HALFLLOQ,VISIT 1,4,Y,Titer value < 1:10,NA,NA,N,0,Titer >= ISLLOQ,NA,NA,NA,NA,NA,Y,1002,2022-06-14,2021-10-07T12:48:00,2021-12-16T12:41:00,2021-09-22,2022-06-14,NA,NA,1002,1212,"Gomez, Selena",1951-07-13,70,YEARS,F,BLACK OR AFRICAN AMERICAN,HISPANIC OR LATINO,VAXAB,VACCINE A VACCINE B,VAXAB,VACCINE A VACCINE B,USA,NA,NA,VACCINE A,VACCINE B,VACCINE A,VACCINE B,2021-10-07T12:48:00Z,2021-12-16T12:41:00Z,2021-10-07,2021-12-16,Y,Non-white,>64,"NA",2021-10-07,2021-12-16,2021-10-07,2021-12-15,2021-12-16,2022-06-14
ABC,IS,ABC-1002,4,R0003MA,R0003MA Antibody,IMMUNOLOGY,48.9,1/DIL,48.9,48.9,titer,NA,NA,LABNAME,SERUM,METHODNAME,Y,4,10,FIRST TREATMENT,2021,1,120,8,10,Visit 1,1,Visit 1 (Day 1),FIRST TREATMENT,2021-06-30,2021-10-07T12:48:00,Y,-99,R0003MA,R0003MA Antibody,4,IMMUNOLOGY,4,8,48.9,titer,S+,2,NA,VISIT 1,48.9,Y,Titer value >= 1:10,NA,NA,Y,1,Titer >= ISLLOQ,NA,NA,NA,NA,NA,Y,1002,2022-06-14,2021-10-07T12:48:00,2021-12-16T12:41:00,2021-09-22,2022-06-14,NA,NA,1002,1212,"Gomez, Selena",1951-07-13,70,YEARS,F,BLACK OR AFRICAN AMERICAN,HISPANIC OR LATINO,VAXAB,VACCINE A VACCINE B,VAXAB,VACCINE A VACCINE B,USA,NA,NA,VACCINE A,VACCINE B,VACCINE A,VACCINE B,2021-10-07T12:48:00Z,2021-12-16T12:41:00Z,2021-10-07,2021-12-16,Y,Non-white,>64,"NA",2021-10-07,2021-12-16,2021-10-07,2021-12-15,2021-12-16,2022-06-14
ABC,IS,ABC-1002,5,J0033VN,J0033VN Antibody,IMMUNOLOGY,>100,1/DIL,>100,NA,titer,NA,NA,LABNAME,SERUM,METHODNAME,NA,2,30,SECOND TREATMENT,2021,61,100,4,30,Visit 3,3,Visit 3 (Day 61),SECOND TREATMENT,2021-06-30,2021-10-07T12:48:00,Y,-99,J0033VN,J0033VN Antibody,1,IMMUNOLOGY,4,8,100,titer,NA,NA,ULOQ,VISIT 1,3,NA,Titer value < 1:10,97,33.333333333333336,Y,1,Titer >= ISLLOQ,NA,NA,NA,NA,NA,Y,1002,2022-06-14,2021-10-07T12:48:00,2021-12-16T12:41:00,2021-09-22,2022-06-14,NA,NA,1002,1212,"Gomez, Selena",1951-07-13,70,YEARS,F,BLACK OR AFRICAN AMERICAN,HISPANIC OR LATINO,VAXAB,VACCINE A VACCINE B,VAXAB,VACCINE A VACCINE B,USA,NA,NA,VACCINE A,VACCINE B,VACCINE A,VACCINE B,2021-10-07T12:48:00Z,2021-12-16T12:41:00Z,2021-10-07,2021-12-16,Y,Non-white,>64,"NA",2021-10-07,2021-12-16,2021-10-07,2021-12-15,2021-12-16,2022-06-14
ABC,IS,ABC-1002,6,I0019NT,I0019NT Antibody,IMMUNOLOGY,<2,1/DIL,<2,NA,titer,NA,NA,LABNAME,SERUM,METHODNAME,NA,4,30,SECOND TREATMENT,2021,61,200,5,30,Visit 3,3,Visit 3 (Day 61),SECOND TREATMENT,2021-06-30,2021-10-07T12:48:00,Y,-99,I0019NT,I0019NT Antibody,2,IMMUNOLOGY,4,8,2,titer,NA,NA,HALFLLOQ,VISIT 1,NA,NA,NA,NA,NA,N,0,Titer >= ISLLOQ,NA,NA,NA,NA,NA,Y,1002,2022-06-14,2021-10-07T12:48:00,2021-12-16T12:41:00,2021-09-22,2022-06-14,NA,NA,1002,1212,"Gomez, Selena",1951-07-13,70,YEARS,F,BLACK OR AFRICAN AMERICAN,HISPANIC OR LATINO,VAXAB,VACCINE A VACCINE B,VAXAB,VACCINE A VACCINE B,USA,NA,NA,VACCINE A,VACCINE B,VACCINE A,VACCINE B,2021-10-07T12:48:00Z,2021-12-16T12:41:00Z,2021-10-07,2021-12-16,Y,Non-white,>64,"NA",2021-10-07,2021-12-16,2021-10-07,2021-12-15,2021-12-16,2022-06-14
ABC,IS,ABC-1002,7,M0019LN,M0019LN Antibody,IMMUNOLOGY,5,1/DIL,5,5,titer,NA,NA,LABNAME,SERUM,METHODNAME,NA,8,30,SECOND TREATMENT,2021,61,150,4,30,Visit 3,3,Visit 3 (Day 61),SECOND TREATMENT,2021-06-30,2021-10-07T12:48:00,Y,-99,M0019LN,M0019LN Antibody,3,IMMUNOLOGY,4,8,4,titer,NA,NA,HALFLLOQ,VISIT 1,4,NA,Titer value < 1:10,0,1,N,0,Titer >= ISLLOQ,NA,NA,NA,NA,NA,Y,1002,2022-06-14,2021-10-07T12:48:00,2021-12-16T12:41:00,2021-09-22,2022-06-14,NA,NA,1002,1212,"Gomez, Selena",1951-07-13,70,YEARS,F,BLACK OR AFRICAN AMERICAN,HISPANIC OR LATINO,VAXAB,VACCINE A VACCINE B,VAXAB,VACCINE A VACCINE B,USA,NA,NA,VACCINE A,VACCINE B,VACCINE A,VACCINE B,2021-10-07T12:48:00Z,2021-12-16T12:41:00Z,2021-10-07,2021-12-16,Y,Non-white,>64,"NA",2021-10-07,2021-12-16,2021-10-07,2021-12-15,2021-12-16,2022-06-14
ABC,IS,ABC-1002,8,R0003MA,R0003MA Antibody,IMMUNOLOGY,228.1,1/DIL,228.1,228.1,titer,NA,NA,LABNAME,SERUM,METHODNAME,NA,4,30,SECOND TREATMENT,2021,61,120,8,30,Visit 3,3,Visit 3 (Day 61),SECOND TREATMENT,2021-06-30,2021-10-07T12:48:00,Y,-99,R0003MA,R0003MA Antibody,4,IMMUNOLOGY,4,8,120,titer,NA,NA,ULOQ,VISIT 1,48.9,NA,Titer value >= 1:10,71.1,2.4539877300613497,Y,1,Titer >= ISLLOQ,NA,NA,NA,NA,NA,Y,1002,2022-06-14,2021-10-07T12:48:00,2021-12-16T12:41:00,2021-09-22,2022-06-14,NA,NA,1002,1212,"Gomez, Selena",1951-07-13,70,YEARS,F,BLACK OR AFRICAN AMERICAN,HISPANIC OR LATINO,VAXAB,VACCINE A VACCINE B,VAXAB,VACCINE A VACCINE B,USA,NA,NA,VACCINE A,VACCINE B,VACCINE A,VACCINE B,2021-10-07T12:48:00Z,2021-12-16T12:41:00Z,2021-10-07,2021-12-16,Y,Non-white,>64,"NA",2021-10-07,2021-12-16,2021-10-07,2021-12-15,2021-12-16,2022-06-14
