STUDYID,USUBJID,TRT01A,PARAMCD,LBSEQ,ADT,AVISIT,ADY,AVAL,ANRHI,CRIT1,CRIT1FL,AVALC,PARAM
CDISCPILOT01,01-701-1015,Placebo,ALT,3,2013-12-26,Baseline,-7,27,34,ALT >=3xULN,NA,NA,NA
CDISCPILOT01,01-701-1015,Placebo,ALT,41,2014-01-16,Week 2,15,41,34,ALT >=3xULN,NA,NA,NA
CDISCPILOT01,01-701-1015,Placebo,ALT,76,2014-01-30,Week 4,29,18,34,ALT >=3xULN,NA,NA,NA
CDISCPILOT01,01-701-1015,Placebo,ALT,106,2014-02-12,Week 6,42,26,34,ALT >=3xULN,NA,NA,NA
CDISCPILOT01,01-701-1015,Placebo,ALT,136,2014-03-05,Week 8,63,22,34,ALT >=3xULN,NA,NA,NA
CDISCPILOT01,01-701-1015,Placebo,ALT,166,2014-03-26,Week 12,84,27,34,ALT >=3xULN,NA,NA,NA
CDISCPILOT01,01-701-1015,Placebo,ALT,201,2014-05-07,Week 16,126,17,34,ALT >=3xULN,NA,NA,NA
CDISCPILOT01,01-701-1015,Placebo,ALT,231,2014-05-21,Week 20,140,21,34,ALT >=3xULN,NA,NA,NA
CDISCPILOT01,01-701-1015,Placebo,ALT,261,2014-06-18,Week 24,168,23,34,ALT >=3xULN,NA,NA,NA
CDISCPILOT01,01-701-1015,Placebo,ALT,296,2014-07-02,Week 26,182,23,34,ALT >=3xULN,NA,NA,NA
CDISCPILOT01,01-701-1015,Placebo,AST,5,2013-12-26,Baseline,-7,40,34,AST >=3xULN,NA,NA,NA
CDISCPILOT01,01-701-1015,Placebo,AST,42,2014-01-16,Week 2,15,33,34,AST >=3xULN,NA,NA,NA
CDISCPILOT01,01-701-1015,Placebo,AST,77,2014-01-30,Week 4,29,21,34,AST >=3xULN,NA,NA,NA
CDISCPILOT01,01-701-1015,Placebo,AST,107,2014-02-12,Week 6,42,26,34,AST >=3xULN,NA,NA,NA
CDISCPILOT01,01-701-1015,Placebo,AST,137,2014-03-05,Week 8,63,21,34,AST >=3xULN,NA,NA,NA
CDISCPILOT01,01-701-1015,Placebo,AST,167,2014-03-26,Week 12,84,22,34,AST >=3xULN,NA,NA,NA
CDISCPILOT01,01-701-1015,Placebo,AST,202,2014-05-07,Week 16,126,23,34,AST >=3xULN,NA,NA,NA
CDISCPILOT01,01-701-1015,Placebo,AST,232,2014-05-21,Week 20,140,19,34,AST >=3xULN,NA,NA,NA
CDISCPILOT01,01-701-1015,Placebo,AST,262,2014-06-18,Week 24,168,23,34,AST >=3xULN,NA,NA,NA
CDISCPILOT01,01-701-1015,Placebo,AST,297,2014-07-02,Week 26,182,19,34,AST >=3xULN,NA,NA,NA
CDISCPILOT01,01-701-1015,Placebo,BILI,7,2013-12-26,Baseline,-7,10.26,21,BILI >=2xULN,NA,NA,NA
CDISCPILOT01,01-701-1015,Placebo,BILI,44,2014-01-16,Week 2,15,8.549999999999999,21,BILI >=2xULN,NA,NA,NA
CDISCPILOT01,01-701-1015,Placebo,BILI,79,2014-01-30,Week 4,29,6.84,21,BILI >=2xULN,NA,NA,NA
CDISCPILOT01,01-701-1015,Placebo,BILI,109,2014-02-12,Week 6,42,5.13,21,BILI >=2xULN,NA,NA,NA
CDISCPILOT01,01-701-1015,Placebo,BILI,139,2014-03-05,Week 8,63,8.549999999999999,21,BILI >=2xULN,NA,NA,NA
CDISCPILOT01,01-701-1015,Placebo,BILI,169,2014-03-26,Week 12,84,6.84,21,BILI >=2xULN,NA,NA,NA
CDISCPILOT01,01-701-1015,Placebo,BILI,204,2014-05-07,Week 16,126,6.84,21,BILI >=2xULN,NA,NA,NA
CDISCPILOT01,01-701-1015,Placebo,BILI,234,2014-05-21,Week 20,140,6.84,21,BILI >=2xULN,NA,NA,NA
CDISCPILOT01,01-701-1015,Placebo,BILI,264,2014-06-18,Week 24,168,6.84,21,BILI >=2xULN,NA,NA,NA
CDISCPILOT01,01-701-1015,Placebo,BILI,299,2014-07-02,Week 26,182,5.13,21,BILI >=2xULN,NA,NA,NA
CDISCPILOT01,01-701-1023,Placebo,ALT,3,2012-07-22,Baseline,-14,23,43,ALT >=3xULN,NA,NA,NA
CDISCPILOT01,01-701-1023,Placebo,ALT,40,2012-08-27,Week 2,23,30,43,ALT >=3xULN,NA,NA,NA
CDISCPILOT01,01-701-1023,Placebo,ALT,75,2012-09-02,Week 4,29,38,43,ALT >=3xULN,NA,NA,NA
CDISCPILOT01,01-701-1023,Placebo,AST,4,2012-07-22,Baseline,-14,21,36,AST >=3xULN,NA,NA,NA
CDISCPILOT01,01-701-1023,Placebo,AST,41,2012-08-27,Week 2,23,25,36,AST >=3xULN,NA,NA,NA
CDISCPILOT01,01-701-1023,Placebo,AST,76,2012-09-02,Week 4,29,30,36,AST >=3xULN,NA,NA,NA
CDISCPILOT01,01-701-1023,Placebo,BILI,6,2012-07-22,Baseline,-14,11.969999999999999,21,BILI >=2xULN,NA,NA,NA
CDISCPILOT01,01-701-1023,Placebo,BILI,43,2012-08-27,Week 2,23,6.84,21,BILI >=2xULN,NA,NA,NA
CDISCPILOT01,01-701-1023,Placebo,BILI,78,2012-09-02,Week 4,29,8.549999999999999,21,BILI >=2xULN,NA,NA,NA
CDISCPILOT01,01-701-1028,Xanomeline High Dose,ALT,3,2013-07-11,Baseline,-8,26,35,ALT >=3xULN,NA,NA,NA
CDISCPILOT01,01-701-1028,Xanomeline High Dose,ALT,40,2013-08-01,Week 2,14,30,35,ALT >=3xULN,NA,NA,NA
CDISCPILOT01,01-701-1028,Xanomeline High Dose,ALT,75,2013-08-14,Week 4,27,29,35,ALT >=3xULN,NA,NA,NA
CDISCPILOT01,01-701-1028,Xanomeline High Dose,ALT,105,2013-08-29,Week 6,42,32,35,ALT >=3xULN,NA,NA,NA
CDISCPILOT01,01-701-1028,Xanomeline High Dose,ALT,135,2013-09-10,Week 8,54,33,35,ALT >=3xULN,NA,NA,NA
CDISCPILOT01,01-701-1028,Xanomeline High Dose,ALT,165,2013-10-09,Week 12,83,29,35,ALT >=3xULN,NA,NA,NA
CDISCPILOT01,01-701-1028,Xanomeline High Dose,ALT,200,2013-11-06,Week 16,111,24,35,ALT >=3xULN,NA,NA,NA
CDISCPILOT01,01-701-1028,Xanomeline High Dose,ALT,232,2013-12-04,Week 20,139,22,35,ALT >=3xULN,NA,NA,NA
CDISCPILOT01,01-701-1028,Xanomeline High Dose,ALT,263,2014-01-06,Week 24,172,24,35,ALT >=3xULN,NA,NA,NA
CDISCPILOT01,01-701-1028,Xanomeline High Dose,ALT,300,2014-01-14,Week 26,180,26,35,ALT >=3xULN,NA,NA,NA
CDISCPILOT01,01-701-1028,Xanomeline High Dose,AST,4,2013-07-11,Baseline,-8,24,36,AST >=3xULN,NA,NA,NA
CDISCPILOT01,01-701-1028,Xanomeline High Dose,AST,41,2013-08-01,Week 2,14,23,36,AST >=3xULN,NA,NA,NA
CDISCPILOT01,01-701-1028,Xanomeline High Dose,AST,76,2013-08-14,Week 4,27,24,36,AST >=3xULN,NA,NA,NA
CDISCPILOT01,01-701-1028,Xanomeline High Dose,AST,106,2013-08-29,Week 6,42,26,36,AST >=3xULN,NA,NA,NA
CDISCPILOT01,01-701-1028,Xanomeline High Dose,AST,136,2013-09-10,Week 8,54,28,36,AST >=3xULN,NA,NA,NA
CDISCPILOT01,01-701-1028,Xanomeline High Dose,AST,166,2013-10-09,Week 12,83,28,36,AST >=3xULN,NA,NA,NA
CDISCPILOT01,01-701-1028,Xanomeline High Dose,AST,202,2013-11-06,Week 16,111,18,36,AST >=3xULN,NA,NA,NA
CDISCPILOT01,01-701-1028,Xanomeline High Dose,AST,234,2013-12-04,Week 20,139,21,36,AST >=3xULN,NA,NA,NA
CDISCPILOT01,01-701-1028,Xanomeline High Dose,AST,264,2014-01-06,Week 24,172,23,36,AST >=3xULN,NA,NA,NA
CDISCPILOT01,01-701-1028,Xanomeline High Dose,AST,301,2014-01-14,Week 26,180,24,36,AST >=3xULN,NA,NA,NA
CDISCPILOT01,01-701-1028,Xanomeline High Dose,BILI,6,2013-07-11,Baseline,-8,18.81,21,BILI >=2xULN,NA,NA,NA
CDISCPILOT01,01-701-1028,Xanomeline High Dose,BILI,43,2013-08-01,Week 2,14,11.969999999999999,21,BILI >=2xULN,NA,NA,NA
CDISCPILOT01,01-701-1028,Xanomeline High Dose,BILI,78,2013-08-14,Week 4,27,13.68,21,BILI >=2xULN,NA,NA,NA
CDISCPILOT01,01-701-1028,Xanomeline High Dose,BILI,108,2013-08-29,Week 6,42,11.969999999999999,21,BILI >=2xULN,NA,NA,NA
CDISCPILOT01,01-701-1028,Xanomeline High Dose,BILI,138,2013-09-10,Week 8,54,13.68,21,BILI >=2xULN,NA,NA,NA
CDISCPILOT01,01-701-1028,Xanomeline High Dose,BILI,168,2013-10-09,Week 12,83,13.68,21,BILI >=2xULN,NA,NA,NA
CDISCPILOT01,01-701-1028,Xanomeline High Dose,BILI,204,2013-11-06,Week 16,111,11.969999999999999,21,BILI >=2xULN,NA,NA,NA
CDISCPILOT01,01-701-1028,Xanomeline High Dose,BILI,236,2013-12-04,Week 20,139,13.68,21,BILI >=2xULN,NA,NA,NA
CDISCPILOT01,01-701-1028,Xanomeline High Dose,BILI,266,2014-01-06,Week 24,172,15.389999999999999,21,BILI >=2xULN,NA,NA,NA
CDISCPILOT01,01-701-1028,Xanomeline High Dose,BILI,303,2014-01-14,Week 26,180,13.68,21,BILI >=2xULN,NA,NA,NA
CDISCPILOT01,01-701-1033,Xanomeline Low Dose,ALT,3,2014-03-10,Baseline,-8,16,35,ALT >=3xULN,NA,NA,NA
CDISCPILOT01,01-701-1033,Xanomeline Low Dose,ALT,40,2014-04-01,Week 2,15,35,35,ALT >=3xULN,NA,NA,NA
CDISCPILOT01,01-701-1033,Xanomeline Low Dose,ALT,75,2014-04-14,Week 4,28,14,35,ALT >=3xULN,NA,NA,NA
CDISCPILOT01,01-701-1033,Xanomeline Low Dose,AST,4,2014-03-10,Baseline,-8,20,36,AST >=3xULN,NA,NA,NA
CDISCPILOT01,01-701-1033,Xanomeline Low Dose,AST,41,2014-04-01,Week 2,15,26,36,AST >=3xULN,NA,NA,NA
CDISCPILOT01,01-701-1033,Xanomeline Low Dose,AST,76,2014-04-14,Week 4,28,20,36,AST >=3xULN,NA,NA,NA
CDISCPILOT01,01-701-1033,Xanomeline Low Dose,BILI,6,2014-03-10,Baseline,-8,13.68,21,BILI >=2xULN,NA,NA,NA
CDISCPILOT01,01-701-1033,Xanomeline Low Dose,BILI,43,2014-04-01,Week 2,15,6.84,21,BILI >=2xULN,NA,NA,NA
CDISCPILOT01,01-701-1033,Xanomeline Low Dose,BILI,78,2014-04-14,Week 4,28,15.389999999999999,21,BILI >=2xULN,NA,NA,NA
CDISCPILOT01,01-701-1034,Xanomeline High Dose,ALT,3,2014-06-24,Baseline,-7,15,32,ALT >=3xULN,NA,NA,NA
CDISCPILOT01,01-701-1034,Xanomeline High Dose,ALT,41,2014-07-15,Week 2,15,19,32,ALT >=3xULN,NA,NA,NA
CDISCPILOT01,01-701-1034,Xanomeline High Dose,ALT,77,2014-07-29,Week 4,29,21,32,ALT >=3xULN,NA,NA,NA
CDISCPILOT01,01-701-1034,Xanomeline High Dose,ALT,108,2014-08-11,Week 6,42,15,32,ALT >=3xULN,NA,NA,NA
CDISCPILOT01,01-701-1034,Xanomeline High Dose,ALT,139,2014-08-26,Week 8,57,24,32,ALT >=3xULN,NA,NA,NA
CDISCPILOT01,01-701-1034,Xanomeline High Dose,ALT,169,2014-09-25,Week 12,87,20,32,ALT >=3xULN,NA,NA,NA
CDISCPILOT01,01-701-1034,Xanomeline High Dose,ALT,204,2014-10-21,Week 16,113,21,32,ALT >=3xULN,NA,NA,NA
CDISCPILOT01,01-701-1034,Xanomeline High Dose,ALT,235,2014-11-18,Week 20,141,23,32,ALT >=3xULN,NA,NA,NA
CDISCPILOT01,01-701-1034,Xanomeline High Dose,ALT,266,2014-12-17,Week 24,170,15,32,ALT >=3xULN,NA,NA,NA
CDISCPILOT01,01-701-1034,Xanomeline High Dose,ALT,302,2014-12-30,Week 26,183,18,32,ALT >=3xULN,NA,NA,NA
CDISCPILOT01,01-701-1034,Xanomeline High Dose,AST,5,2014-06-24,Baseline,-7,23,34,AST >=3xULN,NA,NA,NA
CDISCPILOT01,01-701-1034,Xanomeline High Dose,AST,42,2014-07-15,Week 2,15,23,34,AST >=3xULN,NA,NA,NA
CDISCPILOT01,01-701-1034,Xanomeline High Dose,AST,79,2014-07-29,Week 4,29,25,34,AST >=3xULN,NA,NA,NA
CDISCPILOT01,01-701-1034,Xanomeline High Dose,AST,110,2014-08-11,Week 6,42,19,34,AST >=3xULN,NA,NA,NA
CDISCPILOT01,01-701-1034,Xanomeline High Dose,AST,140,2014-08-26,Week 8,57,26,34,AST >=3xULN,NA,NA,NA
CDISCPILOT01,01-701-1034,Xanomeline High Dose,AST,170,2014-09-25,Week 12,87,23,34,AST >=3xULN,NA,NA,NA
CDISCPILOT01,01-701-1034,Xanomeline High Dose,AST,205,2014-10-21,Week 16,113,21,34,AST >=3xULN,NA,NA,NA
CDISCPILOT01,01-701-1034,Xanomeline High Dose,AST,236,2014-11-18,Week 20,141,22,34,AST >=3xULN,NA,NA,NA
CDISCPILOT01,01-701-1034,Xanomeline High Dose,AST,267,2014-12-17,Week 24,170,17,34,AST >=3xULN,NA,NA,NA
CDISCPILOT01,01-701-1034,Xanomeline High Dose,AST,304,2014-12-30,Week 26,183,21,34,AST >=3xULN,NA,NA,NA
CDISCPILOT01,01-701-1034,Xanomeline High Dose,BILI,7,2014-06-24,Baseline,-7,10.26,21,BILI >=2xULN,NA,NA,NA
CDISCPILOT01,01-701-1034,Xanomeline High Dose,BILI,44,2014-07-15,Week 2,15,6.84,21,BILI >=2xULN,NA,NA,NA
CDISCPILOT01,01-701-1034,Xanomeline High Dose,BILI,81,2014-07-29,Week 4,29,6.84,21,BILI >=2xULN,NA,NA,NA
CDISCPILOT01,01-701-1034,Xanomeline High Dose,BILI,112,2014-08-11,Week 6,42,6.84,21,BILI >=2xULN,NA,NA,NA
CDISCPILOT01,01-701-1034,Xanomeline High Dose,BILI,142,2014-08-26,Week 8,57,8.549999999999999,21,BILI >=2xULN,NA,NA,NA
CDISCPILOT01,01-701-1034,Xanomeline High Dose,BILI,172,2014-09-25,Week 12,87,8.549999999999999,21,BILI >=2xULN,NA,NA,NA
CDISCPILOT01,01-701-1034,Xanomeline High Dose,BILI,207,2014-10-21,Week 16,113,6.84,21,BILI >=2xULN,NA,NA,NA
CDISCPILOT01,01-701-1034,Xanomeline High Dose,BILI,238,2014-11-18,Week 20,141,5.13,21,BILI >=2xULN,NA,NA,NA
CDISCPILOT01,01-701-1034,Xanomeline High Dose,BILI,269,2014-12-17,Week 24,170,6.84,21,BILI >=2xULN,NA,NA,NA
CDISCPILOT01,01-701-1034,Xanomeline High Dose,BILI,306,2014-12-30,Week 26,183,6.84,21,BILI >=2xULN,NA,NA,NA
CDISCPILOT01,01-701-1047,Placebo,ALT,3,2013-01-22,Baseline,-21,22,32,ALT >=3xULN,NA,NA,NA
CDISCPILOT01,01-701-1047,Placebo,ALT,40,2013-02-25,Week 2,14,16,32,ALT >=3xULN,NA,NA,NA
CDISCPILOT01,01-701-1047,Placebo,ALT,75,2013-03-10,Week 4,27,20,32,ALT >=3xULN,NA,NA,NA
CDISCPILOT01,01-701-1047,Placebo,ALT,122,2013-04-07,Unscheduled 6.1,55,17,32,ALT >=3xULN,NA,NA,NA
CDISCPILOT01,01-701-1047,Placebo,AST,4,2013-01-22,Baseline,-21,25,34,AST >=3xULN,NA,NA,NA
CDISCPILOT01,01-701-1047,Placebo,AST,41,2013-02-25,Week 2,14,21,34,AST >=3xULN,NA,NA,NA
CDISCPILOT01,01-701-1047,Placebo,AST,76,2013-03-10,Week 4,27,24,34,AST >=3xULN,NA,NA,NA
CDISCPILOT01,01-701-1047,Placebo,AST,123,2013-04-07,Unscheduled 6.1,55,21,34,AST >=3xULN,NA,NA,NA
CDISCPILOT01,01-701-1047,Placebo,BILI,6,2013-01-22,Baseline,-21,6.84,21,BILI >=2xULN,NA,NA,NA
CDISCPILOT01,01-701-1047,Placebo,BILI,43,2013-02-25,Week 2,14,8.549999999999999,21,BILI >=2xULN,NA,NA,NA
CDISCPILOT01,01-701-1047,Placebo,BILI,78,2013-03-10,Week 4,27,6.84,21,BILI >=2xULN,NA,NA,NA
CDISCPILOT01,01-701-1047,Placebo,BILI,124,2013-04-07,Unscheduled 6.1,55,6.84,21,BILI >=2xULN,NA,NA,NA
CDISCPILOT01,01-701-1097,Xanomeline Low Dose,ALT,3,2013-12-23,Baseline,-9,16,43,ALT >=3xULN,NA,NA,NA
CDISCPILOT01,01-701-1097,Xanomeline Low Dose,ALT,40,2014-01-15,Week 2,15,24,43,ALT >=3xULN,NA,NA,NA
CDISCPILOT01,01-701-1097,Xanomeline Low Dose,ALT,75,2014-01-29,Week 4,29,17,43,ALT >=3xULN,NA,NA,NA
CDISCPILOT01,01-701-1097,Xanomeline Low Dose,ALT,105,2014-02-11,Week 6,42,14,43,ALT >=3xULN,NA,NA,NA
CDISCPILOT01,01-701-1097,Xanomeline Low Dose,ALT,135,2014-02-26,Week 8,57,18,43,ALT >=3xULN,NA,NA,NA
CDISCPILOT01,01-701-1097,Xanomeline Low Dose,ALT,165,2014-03-26,Week 12,85,14,43,ALT >=3xULN,NA,NA,NA
CDISCPILOT01,01-701-1097,Xanomeline Low Dose,ALT,200,2014-04-23,Week 16,113,15,43,ALT >=3xULN,NA,NA,NA
CDISCPILOT01,01-701-1097,Xanomeline Low Dose,ALT,230,2014-05-21,Week 20,141,11,43,ALT >=3xULN,NA,NA,NA
CDISCPILOT01,01-701-1097,Xanomeline Low Dose,ALT,260,2014-06-18,Week 24,169,18,43,ALT >=3xULN,NA,NA,NA
CDISCPILOT01,01-701-1097,Xanomeline Low Dose,ALT,295,2014-07-09,Week 26,190,15,43,ALT >=3xULN,NA,NA,NA
CDISCPILOT01,01-701-1097,Xanomeline Low Dose,AST,4,2013-12-23,Baseline,-9,19,36,AST >=3xULN,NA,NA,NA
CDISCPILOT01,01-701-1097,Xanomeline Low Dose,AST,41,2014-01-15,Week 2,15,21,36,AST >=3xULN,NA,NA,NA
CDISCPILOT01,01-701-1097,Xanomeline Low Dose,AST,76,2014-01-29,Week 4,29,16,36,AST >=3xULN,NA,NA,NA
CDISCPILOT01,01-701-1097,Xanomeline Low Dose,AST,106,2014-02-11,Week 6,42,19,36,AST >=3xULN,NA,NA,NA
CDISCPILOT01,01-701-1097,Xanomeline Low Dose,AST,136,2014-02-26,Week 8,57,18,36,AST >=3xULN,NA,NA,NA
CDISCPILOT01,01-701-1097,Xanomeline Low Dose,AST,166,2014-03-26,Week 12,85,17,36,AST >=3xULN,NA,NA,NA
CDISCPILOT01,01-701-1097,Xanomeline Low Dose,AST,201,2014-04-23,Week 16,113,17,36,AST >=3xULN,NA,NA,NA
CDISCPILOT01,01-701-1097,Xanomeline Low Dose,AST,231,2014-05-21,Week 20,141,16,36,AST >=3xULN,NA,NA,NA
CDISCPILOT01,01-701-1097,Xanomeline Low Dose,AST,261,2014-06-18,Week 24,169,20,36,AST >=3xULN,NA,NA,NA
CDISCPILOT01,01-701-1097,Xanomeline Low Dose,AST,296,2014-07-09,Week 26,190,19,36,AST >=3xULN,NA,NA,NA
CDISCPILOT01,01-701-1097,Xanomeline Low Dose,BILI,6,2013-12-23,Baseline,-9,6.84,21,BILI >=2xULN,NA,NA,NA
CDISCPILOT01,01-701-1097,Xanomeline Low Dose,BILI,43,2014-01-15,Week 2,15,8.549999999999999,21,BILI >=2xULN,NA,NA,NA
CDISCPILOT01,01-701-1097,Xanomeline Low Dose,BILI,78,2014-01-29,Week 4,29,10.26,21,BILI >=2xULN,NA,NA,NA
CDISCPILOT01,01-701-1097,Xanomeline Low Dose,BILI,108,2014-02-11,Week 6,42,8.549999999999999,21,BILI >=2xULN,NA,NA,NA
CDISCPILOT01,01-701-1097,Xanomeline Low Dose,BILI,138,2014-02-26,Week 8,57,8.549999999999999,21,BILI >=2xULN,NA,NA,NA
CDISCPILOT01,01-701-1097,Xanomeline Low Dose,BILI,168,2014-03-26,Week 12,85,6.84,21,BILI >=2xULN,NA,NA,NA
CDISCPILOT01,01-701-1097,Xanomeline Low Dose,BILI,203,2014-04-23,Week 16,113,6.84,21,BILI >=2xULN,NA,NA,NA
CDISCPILOT01,01-701-1097,Xanomeline Low Dose,BILI,233,2014-05-21,Week 20,141,5.13,21,BILI >=2xULN,NA,NA,NA
CDISCPILOT01,01-701-1097,Xanomeline Low Dose,BILI,263,2014-06-18,Week 24,169,10.26,21,BILI >=2xULN,NA,NA,NA
CDISCPILOT01,01-701-1097,Xanomeline Low Dose,BILI,298,2014-07-09,Week 26,190,8.549999999999999,21,BILI >=2xULN,NA,NA,NA
CDISCPILOT01,01-705-1186,Placebo,ALT,3,2014-01-03,Baseline,-5,50,32,ALT >=3xULN,NA,NA,NA
CDISCPILOT01,01-705-1186,Placebo,ALT,40,2014-01-23,Week 2,16,104,32,ALT >=3xULN,Y,NA,NA
CDISCPILOT01,01-705-1186,Placebo,ALT,76,2014-01-26,Unscheduled 4.1,19,95,32,ALT >=3xULN,NA,NA,NA
CDISCPILOT01,01-705-1186,Placebo,ALT,127,2014-01-29,Week 4,22,107,32,ALT >=3xULN,Y,NA,NA
CDISCPILOT01,01-705-1186,Placebo,ALT,112,2014-02-01,Unscheduled 4.2,25,92,32,ALT >=3xULN,NA,NA,NA
CDISCPILOT01,01-705-1186,Placebo,ALT,162,2014-02-07,Unscheduled 5.1,31,73,32,ALT >=3xULN,NA,NA,NA
CDISCPILOT01,01-705-1186,Placebo,AST,4,2014-01-03,Baseline,-5,54,34,AST >=3xULN,NA,NA,NA
CDISCPILOT01,01-705-1186,Placebo,AST,41,2014-01-23,Week 2,16,118,34,AST >=3xULN,Y,NA,NA
CDISCPILOT01,01-705-1186,Placebo,AST,77,2014-01-26,Unscheduled 4.1,19,115,34,AST >=3xULN,Y,NA,NA
CDISCPILOT01,01-705-1186,Placebo,AST,128,2014-01-29,Week 4,22,135,34,AST >=3xULN,Y,NA,NA
CDISCPILOT01,01-705-1186,Placebo,AST,113,2014-02-01,Unscheduled 4.2,25,114,34,AST >=3xULN,Y,NA,NA
CDISCPILOT01,01-705-1186,Placebo,AST,164,2014-02-07,Unscheduled 5.1,31,92,34,AST >=3xULN,NA,NA,NA
CDISCPILOT01,01-705-1186,Placebo,BILI,6,2014-01-03,Baseline,-5,25.65,21,BILI >=2xULN,NA,NA,NA
CDISCPILOT01,01-705-1186,Placebo,BILI,43,2014-01-23,Week 2,16,116.28,21,BILI >=2xULN,Y,NA,NA
CDISCPILOT01,01-705-1186,Placebo,BILI,79,2014-01-26,Unscheduled 4.1,19,124.83,21,BILI >=2xULN,Y,NA,NA
CDISCPILOT01,01-705-1186,Placebo,BILI,130,2014-01-29,Week 4,22,124.83,21,BILI >=2xULN,Y,NA,NA
CDISCPILOT01,01-705-1186,Placebo,BILI,114,2014-02-01,Unscheduled 4.2,25,99.17999999999999,21,BILI >=2xULN,Y,NA,NA
CDISCPILOT01,01-705-1186,Placebo,BILI,166,2014-02-07,Unscheduled 5.1,31,71.82,21,BILI >=2xULN,Y,NA,NA
CDISCPILOT01,01-705-1292,Xanomeline Low Dose,ALT,3,2013-10-10,Baseline,-4,33,34,ALT >=3xULN,NA,NA,NA
CDISCPILOT01,01-705-1292,Xanomeline Low Dose,ALT,40,2013-10-29,Week 2,16,30,34,ALT >=3xULN,NA,NA,NA
CDISCPILOT01,01-705-1292,Xanomeline Low Dose,ALT,75,2013-11-22,Week 4,40,33,34,ALT >=3xULN,NA,NA,NA
CDISCPILOT01,01-705-1292,Xanomeline Low Dose,ALT,118,2013-12-11,Week 6,59,28,34,ALT >=3xULN,NA,NA,NA
CDISCPILOT01,01-705-1292,Xanomeline Low Dose,ALT,149,2014-01-02,Week 8,81,25,34,ALT >=3xULN,NA,NA,NA
CDISCPILOT01,01-705-1292,Xanomeline Low Dose,ALT,179,2014-02-07,Week 12,117,88,34,ALT >=3xULN,NA,NA,NA
CDISCPILOT01,01-705-1292,Xanomeline Low Dose,ALT,214,2014-03-03,Week 16,141,41,34,ALT >=3xULN,NA,NA,NA
CDISCPILOT01,01-705-1292,Xanomeline Low Dose,ALT,256,2014-04-28,Week 24,197,48,34,ALT >=3xULN,NA,NA,NA
CDISCPILOT01,01-705-1292,Xanomeline Low Dose,ALT,292,2014-05-14,Week 26,213,53,34,ALT >=3xULN,NA,NA,NA
CDISCPILOT01,01-705-1292,Xanomeline Low Dose,AST,4,2013-10-10,Baseline,-4,43,34,AST >=3xULN,NA,NA,NA
CDISCPILOT01,01-705-1292,Xanomeline Low Dose,AST,41,2013-10-29,Week 2,16,40,34,AST >=3xULN,NA,NA,NA
CDISCPILOT01,01-705-1292,Xanomeline Low Dose,AST,77,2013-11-22,Week 4,40,46,34,AST >=3xULN,NA,NA,NA
CDISCPILOT01,01-705-1292,Xanomeline Low Dose,AST,119,2013-12-11,Week 6,59,39,34,AST >=3xULN,NA,NA,NA
CDISCPILOT01,01-705-1292,Xanomeline Low Dose,AST,150,2014-01-02,Week 8,81,36,34,AST >=3xULN,NA,NA,NA
CDISCPILOT01,01-705-1292,Xanomeline Low Dose,AST,180,2014-02-07,Week 12,117,125,34,AST >=3xULN,Y,NA,NA
CDISCPILOT01,01-705-1292,Xanomeline Low Dose,AST,215,2014-03-03,Week 16,141,76,34,AST >=3xULN,NA,NA,NA
CDISCPILOT01,01-705-1292,Xanomeline Low Dose,AST,258,2014-04-28,Week 24,197,68,34,AST >=3xULN,NA,NA,NA
CDISCPILOT01,01-705-1292,Xanomeline Low Dose,AST,293,2014-05-14,Week 26,213,75,34,AST >=3xULN,NA,NA,NA
CDISCPILOT01,01-705-1292,Xanomeline Low Dose,BILI,6,2013-10-10,Baseline,-4,8.549999999999999,21,BILI >=2xULN,NA,NA,NA
CDISCPILOT01,01-705-1292,Xanomeline Low Dose,BILI,43,2013-10-29,Week 2,16,6.84,21,BILI >=2xULN,NA,NA,NA
CDISCPILOT01,01-705-1292,Xanomeline Low Dose,BILI,79,2013-11-22,Week 4,40,6.84,21,BILI >=2xULN,NA,NA,NA
CDISCPILOT01,01-705-1292,Xanomeline Low Dose,BILI,121,2013-12-11,Week 6,59,8.549999999999999,21,BILI >=2xULN,NA,NA,NA
CDISCPILOT01,01-705-1292,Xanomeline Low Dose,BILI,152,2014-01-02,Week 8,81,5.13,21,BILI >=2xULN,NA,NA,NA
CDISCPILOT01,01-705-1292,Xanomeline Low Dose,BILI,182,2014-02-07,Week 12,117,10.26,21,BILI >=2xULN,NA,NA,NA
CDISCPILOT01,01-705-1292,Xanomeline Low Dose,BILI,217,2014-03-03,Week 16,141,8.549999999999999,21,BILI >=2xULN,NA,NA,NA
CDISCPILOT01,01-705-1292,Xanomeline Low Dose,BILI,260,2014-04-28,Week 24,197,11.969999999999999,21,BILI >=2xULN,NA,NA,NA
CDISCPILOT01,01-705-1292,Xanomeline Low Dose,BILI,295,2014-05-14,Week 26,213,10.26,21,BILI >=2xULN,NA,NA,NA
CDISCPILOT01,01-705-1310,Xanomeline High Dose,ALT,3,2013-10-26,Baseline,-7,10,32,ALT >=3xULN,NA,NA,NA
CDISCPILOT01,01-705-1310,Xanomeline High Dose,ALT,40,2013-11-22,Week 2,21,13,32,ALT >=3xULN,NA,NA,NA
CDISCPILOT01,01-705-1310,Xanomeline High Dose,ALT,75,2013-11-30,Week 4,29,15,32,ALT >=3xULN,NA,NA,NA
CDISCPILOT01,01-705-1310,Xanomeline High Dose,ALT,105,2013-12-16,Week 6,45,20,32,ALT >=3xULN,NA,NA,NA
CDISCPILOT01,01-705-1310,Xanomeline High Dose,ALT,135,2013-12-26,Week 8,55,129,32,ALT >=3xULN,Y,NA,NA
CDISCPILOT01,01-705-1310,Xanomeline High Dose,ALT,165,2013-12-29,Unscheduled 8.2,58,42,32,ALT >=3xULN,NA,NA,NA
CDISCPILOT01,01-705-1310,Xanomeline High Dose,ALT,180,2014-01-23,Week 12,83,10,32,ALT >=3xULN,NA,NA,NA
CDISCPILOT01,01-705-1310,Xanomeline High Dose,AST,4,2013-10-26,Baseline,-7,20,34,AST >=3xULN,NA,NA,NA
CDISCPILOT01,01-705-1310,Xanomeline High Dose,AST,41,2013-11-22,Week 2,21,23,34,AST >=3xULN,NA,NA,NA
CDISCPILOT01,01-705-1310,Xanomeline High Dose,AST,76,2013-11-30,Week 4,29,24,34,AST >=3xULN,NA,NA,NA
CDISCPILOT01,01-705-1310,Xanomeline High Dose,AST,106,2013-12-16,Week 6,45,26,34,AST >=3xULN,NA,NA,NA
CDISCPILOT01,01-705-1310,Xanomeline High Dose,AST,136,2013-12-26,Week 8,55,114,34,AST >=3xULN,Y,NA,NA
CDISCPILOT01,01-705-1310,Xanomeline High Dose,AST,166,2013-12-29,Unscheduled 8.2,58,21,34,AST >=3xULN,NA,NA,NA
CDISCPILOT01,01-705-1310,Xanomeline High Dose,AST,181,2014-01-23,Week 12,83,18,34,AST >=3xULN,NA,NA,NA
CDISCPILOT01,01-705-1310,Xanomeline High Dose,BILI,6,2013-10-26,Baseline,-7,17.1,21,BILI >=2xULN,NA,NA,NA
CDISCPILOT01,01-705-1310,Xanomeline High Dose,BILI,43,2013-11-22,Week 2,21,13.68,21,BILI >=2xULN,NA,NA,NA
CDISCPILOT01,01-705-1310,Xanomeline High Dose,BILI,78,2013-11-30,Week 4,29,13.68,21,BILI >=2xULN,NA,NA,NA
CDISCPILOT01,01-705-1310,Xanomeline High Dose,BILI,108,2013-12-16,Week 6,45,13.68,21,BILI >=2xULN,NA,NA,NA
CDISCPILOT01,01-705-1310,Xanomeline High Dose,BILI,138,2013-12-26,Week 8,55,15.389999999999999,21,BILI >=2xULN,NA,NA,NA
CDISCPILOT01,01-705-1310,Xanomeline High Dose,BILI,167,2013-12-29,Unscheduled 8.2,58,15.389999999999999,21,BILI >=2xULN,NA,NA,NA
CDISCPILOT01,01-705-1310,Xanomeline High Dose,BILI,183,2014-01-23,Week 12,83,13.68,21,BILI >=2xULN,NA,NA,NA
CDISCPILOT01,01-708-1286,Placebo,ALT,3,2013-08-25,Baseline,-16,13,32,ALT >=3xULN,NA,NA,NA
CDISCPILOT01,01-708-1286,Placebo,ALT,40,2013-09-23,Week 2,14,12,32,ALT >=3xULN,NA,NA,NA
CDISCPILOT01,01-708-1286,Placebo,ALT,87,2013-10-19,Week 6,40,14,32,ALT >=3xULN,NA,NA,NA
CDISCPILOT01,01-708-1286,Placebo,ALT,117,2013-11-03,Week 8,55,12,32,ALT >=3xULN,NA,NA,NA
CDISCPILOT01,01-708-1286,Placebo,ALT,147,2013-12-29,Week 16,111,14,32,ALT >=3xULN,NA,NA,NA
CDISCPILOT01,01-708-1286,Placebo,ALT,177,2014-02-01,Week 20,145,13,32,ALT >=3xULN,NA,NA,NA
CDISCPILOT01,01-708-1286,Placebo,ALT,207,2014-02-23,Week 24,167,124,32,ALT >=3xULN,Y,NA,NA
CDISCPILOT01,01-708-1286,Placebo,ALT,242,2014-03-08,Week 26,180,22,32,ALT >=3xULN,NA,NA,NA
CDISCPILOT01,01-708-1286,Placebo,AST,4,2013-08-25,Baseline,-16,28,34,AST >=3xULN,NA,NA,NA
CDISCPILOT01,01-708-1286,Placebo,AST,41,2013-09-23,Week 2,14,24,34,AST >=3xULN,NA,NA,NA
CDISCPILOT01,01-708-1286,Placebo,AST,88,2013-10-19,Week 6,40,31,34,AST >=3xULN,NA,NA,NA
CDISCPILOT01,01-708-1286,Placebo,AST,118,2013-11-03,Week 8,55,27,34,AST >=3xULN,NA,NA,NA
CDISCPILOT01,01-708-1286,Placebo,AST,148,2013-12-29,Week 16,111,27,34,AST >=3xULN,NA,NA,NA
CDISCPILOT01,01-708-1286,Placebo,AST,178,2014-02-01,Week 20,145,28,34,AST >=3xULN,NA,NA,NA
CDISCPILOT01,01-708-1286,Placebo,AST,208,2014-02-23,Week 24,167,168,34,AST >=3xULN,Y,NA,NA
CDISCPILOT01,01-708-1286,Placebo,AST,243,2014-03-08,Week 26,180,33,34,AST >=3xULN,NA,NA,NA
CDISCPILOT01,01-708-1286,Placebo,BILI,6,2013-08-25,Baseline,-16,6.84,21,BILI >=2xULN,NA,NA,NA
CDISCPILOT01,01-708-1286,Placebo,BILI,43,2013-09-23,Week 2,14,5.13,21,BILI >=2xULN,NA,NA,NA
CDISCPILOT01,01-708-1286,Placebo,BILI,90,2013-10-19,Week 6,40,6.84,21,BILI >=2xULN,NA,NA,NA
CDISCPILOT01,01-708-1286,Placebo,BILI,120,2013-11-03,Week 8,55,5.13,21,BILI >=2xULN,NA,NA,NA
CDISCPILOT01,01-708-1286,Placebo,BILI,150,2013-12-29,Week 16,111,8.549999999999999,21,BILI >=2xULN,NA,NA,NA
CDISCPILOT01,01-708-1286,Placebo,BILI,180,2014-02-01,Week 20,145,5.13,21,BILI >=2xULN,NA,NA,NA
CDISCPILOT01,01-708-1286,Placebo,BILI,210,2014-02-23,Week 24,167,6.84,21,BILI >=2xULN,NA,NA,NA
CDISCPILOT01,01-708-1286,Placebo,BILI,245,2014-03-08,Week 26,180,5.13,21,BILI >=2xULN,NA,NA,NA
CDISCPILOT01,01-701-1015,Placebo,HYSLAW,NA,NA,NA,NA,NA,NA,NA,NA,N,ALT/AST >= 3xULN and BILI >= 2xULN
CDISCPILOT01,01-701-1023,Placebo,HYSLAW,NA,NA,NA,NA,NA,NA,NA,NA,N,ALT/AST >= 3xULN and BILI >= 2xULN
CDISCPILOT01,01-701-1028,Xanomeline High Dose,HYSLAW,NA,NA,NA,NA,NA,NA,NA,NA,N,ALT/AST >= 3xULN and BILI >= 2xULN
CDISCPILOT01,01-701-1033,Xanomeline Low Dose,HYSLAW,NA,NA,NA,NA,NA,NA,NA,NA,N,ALT/AST >= 3xULN and BILI >= 2xULN
CDISCPILOT01,01-701-1034,Xanomeline High Dose,HYSLAW,NA,NA,NA,NA,NA,NA,NA,NA,N,ALT/AST >= 3xULN and BILI >= 2xULN
CDISCPILOT01,01-701-1047,Placebo,HYSLAW,NA,NA,NA,NA,NA,NA,NA,NA,N,ALT/AST >= 3xULN and BILI >= 2xULN
CDISCPILOT01,01-701-1097,Xanomeline Low Dose,HYSLAW,NA,NA,NA,NA,NA,NA,NA,NA,N,ALT/AST >= 3xULN and BILI >= 2xULN
CDISCPILOT01,01-705-1186,Placebo,HYSLAW,NA,NA,NA,NA,NA,NA,NA,NA,Y,ALT/AST >= 3xULN and BILI >= 2xULN
CDISCPILOT01,01-705-1292,Xanomeline Low Dose,HYSLAW,NA,NA,NA,NA,NA,NA,NA,NA,N,ALT/AST >= 3xULN and BILI >= 2xULN
CDISCPILOT01,01-705-1310,Xanomeline High Dose,HYSLAW,NA,NA,NA,NA,NA,NA,NA,NA,N,ALT/AST >= 3xULN and BILI >= 2xULN
CDISCPILOT01,01-708-1286,Placebo,HYSLAW,NA,NA,NA,NA,NA,NA,NA,NA,N,ALT/AST >= 3xULN and BILI >= 2xULN
