DOMAIN,STUDYID,USUBJID,VISITNUM,VISIT,RSTESTCD,RSTEST,RSORRES,RSSTRESC,RSEVAL,RSEVALID,RSACPTFL,RSDTC,RSSEQ,RANDDT,PARAMCD,PARAM,PARCAT1,PARCAT2,PARCAT3,ADT,ADTF,AVISIT,AVALC,AVAL,ANL01FL,ANL02FL,ASEQ,SUBJID,RFSTDTC,RFENDTC,RFXSTDTC,RFXENDTC,RFICDTC,RFPENDTC,DTHDTC,DTHFL,SITEID,AGE,AGEU,SEX,RACE,ETHNIC,ARMCD,ARM,ACTARMCD,ACTARM,COUNTRY,DMDTC,DMDY,TRT01P,TRT01A,TRTSDTM,TRTSTMF,TRTEDTM,TRTETMF,TRTSDT,TRTEDT,TRTDURD,SCRFDT,EOSDT,EOSSTT,FRVDT,DTHDT,DTHDTF,DTHADY,LDDTHELD,LSTALVDT,SAFFL,RACEGR1,AGEGR1,REGION1,LDDTHGR1,DTH30FL,DTHA30FL,DTHB30FL
RS,CDISCPILOT01,01-701-1015,4,WEEK 9,OVRLRESP,Overall Response,CR,CR,INVESTIGATOR,NA,NA,2014-03-06,9,2014-01-02,BCP,Best Overall Response of CR/PR by Investigator (confirmation not required),Tumor Response,Investigator,RECIST 1.1,2014-03-06,NA,WEEK 9,Y,1,Y,Y,1,1015,2014-01-02,2014-07-02,2014-01-02,2014-07-02,NA,2014-07-02T11:45,NA,NA,701,63,YEARS,F,WHITE,HISPANIC OR LATINO,Pbo,Placebo,Pbo,Placebo,USA,2013-12-26,-7,Placebo,Placebo,2014-01-02T00:00:00Z,H,2014-07-02T23:59:59Z,H,2014-01-02,2014-07-02,182,NA,2014-07-02,COMPLETED,NA,NA,NA,NA,NA,2014-07-02,Y,White,18-64,"NA",NA,NA,NA,NA
RS,CDISCPILOT01,01-701-1015,4,WEEK 9,OVRLRESP,Overall Response,CR,CR,INVESTIGATOR,NA,NA,2014-03-06,9,2014-01-02,BOR,Best Overall Response by Investigator (confirmation not required),Tumor Response,Investigator,RECIST 1.1,2014-03-06,NA,WEEK 9,CR,1,Y,Y,2,1015,2014-01-02,2014-07-02,2014-01-02,2014-07-02,NA,2014-07-02T11:45,NA,NA,701,63,YEARS,F,WHITE,HISPANIC OR LATINO,Pbo,Placebo,Pbo,Placebo,USA,2013-12-26,-7,Placebo,Placebo,2014-01-02T00:00:00Z,H,2014-07-02T23:59:59Z,H,2014-01-02,2014-07-02,182,NA,2014-07-02,COMPLETED,NA,NA,NA,NA,NA,2014-07-02,Y,White,18-64,"NA",NA,NA,NA,NA
RS,CDISCPILOT01,01-701-1015,4,WEEK 9,OVRLRESP,Overall Response,CR,CR,INVESTIGATOR,NA,NA,2014-03-06,9,2014-01-02,CB,Clinical Benefit by Investigator (confirmation for response not required),Tumor Response,Investigator,RECIST 1.1,2014-03-06,NA,WEEK 9,Y,1,Y,Y,3,1015,2014-01-02,2014-07-02,2014-01-02,2014-07-02,NA,2014-07-02T11:45,NA,NA,701,63,YEARS,F,WHITE,HISPANIC OR LATINO,Pbo,Placebo,Pbo,Placebo,USA,2013-12-26,-7,Placebo,Placebo,2014-01-02T00:00:00Z,H,2014-07-02T23:59:59Z,H,2014-01-02,2014-07-02,182,NA,2014-07-02,COMPLETED,NA,NA,NA,NA,NA,2014-07-02,Y,White,18-64,"NA",NA,NA,NA,NA
NA,CDISCPILOT01,01-701-1015,NA,NA,NA,NA,NA,NA,NA,NA,NA,NA,NA,2014-01-02,CBCP,Best Confirmed Overall Response of CR/PR by Investigator,Tumor Response,Investigator,RECIST 1.1,NA,NA,NA,N,0,Y,NA,4,1015,2014-01-02,2014-07-02,2014-01-02,2014-07-02,NA,2014-07-02T11:45,NA,NA,701,63,YEARS,F,WHITE,HISPANIC OR LATINO,Pbo,Placebo,Pbo,Placebo,USA,2013-12-26,-7,Placebo,Placebo,2014-01-02T00:00:00Z,H,2014-07-02T23:59:59Z,H,2014-01-02,2014-07-02,182,NA,2014-07-02,COMPLETED,NA,NA,NA,NA,NA,2014-07-02,Y,White,18-64,"NA",NA,NA,NA,NA
RS,CDISCPILOT01,01-701-1015,4,WEEK 9,OVRLRESP,Overall Response,CR,CR,INVESTIGATOR,NA,NA,2014-03-06,9,2014-01-02,CBOR,Best Confirmed Overall Response by Investigator,Tumor Response,Investigator,RECIST 1.1,2014-03-06,NA,WEEK 9,SD,3,Y,Y,5,1015,2014-01-02,2014-07-02,2014-01-02,2014-07-02,NA,2014-07-02T11:45,NA,NA,701,63,YEARS,F,WHITE,HISPANIC OR LATINO,Pbo,Placebo,Pbo,Placebo,USA,2013-12-26,-7,Placebo,Placebo,2014-01-02T00:00:00Z,H,2014-07-02T23:59:59Z,H,2014-01-02,2014-07-02,182,NA,2014-07-02,COMPLETED,NA,NA,NA,NA,NA,2014-07-02,Y,White,18-64,"NA",NA,NA,NA,NA
RS,CDISCPILOT01,01-701-1015,4,WEEK 9,OVRLRESP,Overall Response,CR,CR,INVESTIGATOR,NA,NA,2014-03-06,9,2014-01-02,CCB,Confirmed Clinical Benefit by Investigator,Tumor Response,Investigator,RECIST 1.1,2014-03-06,NA,WEEK 9,Y,1,Y,Y,6,1015,2014-01-02,2014-07-02,2014-01-02,2014-07-02,NA,2014-07-02T11:45,NA,NA,701,63,YEARS,F,WHITE,HISPANIC OR LATINO,Pbo,Placebo,Pbo,Placebo,USA,2013-12-26,-7,Placebo,Placebo,2014-01-02T00:00:00Z,H,2014-07-02T23:59:59Z,H,2014-01-02,2014-07-02,182,NA,2014-07-02,COMPLETED,NA,NA,NA,NA,NA,2014-07-02,Y,White,18-64,"NA",NA,NA,NA,NA
NA,CDISCPILOT01,01-701-1015,NA,NA,NA,NA,NA,NA,NA,NA,NA,NA,NA,2014-01-02,CRSP,Confirmed Response by Investigator,Tumor Response,Investigator,RECIST 1.1,NA,NA,NA,N,0,Y,NA,7,1015,2014-01-02,2014-07-02,2014-01-02,2014-07-02,NA,2014-07-02T11:45,NA,NA,701,63,YEARS,F,WHITE,HISPANIC OR LATINO,Pbo,Placebo,Pbo,Placebo,USA,2013-12-26,-7,Placebo,Placebo,2014-01-02T00:00:00Z,H,2014-07-02T23:59:59Z,H,2014-01-02,2014-07-02,182,NA,2014-07-02,COMPLETED,NA,NA,NA,NA,NA,2014-07-02,Y,White,18-64,"NA",NA,NA,NA,NA
NA,CDISCPILOT01,01-701-1015,NA,NA,NA,NA,NA,NA,NA,NA,NA,NA,NA,2014-01-02,DEATH,Death,Reference Event,NA,NA,NA,NA,NA,N,0,Y,NA,8,1015,2014-01-02,2014-07-02,2014-01-02,2014-07-02,NA,2014-07-02T11:45,NA,NA,701,63,YEARS,F,WHITE,HISPANIC OR LATINO,Pbo,Placebo,Pbo,Placebo,USA,2013-12-26,-7,Placebo,Placebo,2014-01-02T00:00:00Z,H,2014-07-02T23:59:59Z,H,2014-01-02,2014-07-02,182,NA,2014-07-02,COMPLETED,NA,NA,NA,NA,NA,2014-07-02,Y,White,18-64,"NA",NA,NA,NA,NA
RS,CDISCPILOT01,01-701-1015,4,WEEK 9,OVRLRESP,Overall Response,CR,CR,INVESTIGATOR,NA,NA,2014-03-06,9,2014-01-02,LSTA,Last Disease Assessment by Investigator,Tumor Response,Investigator,RECIST 1.1,2014-03-06,NA,WEEK 9,CR,1,Y,Y,9,1015,2014-01-02,2014-07-02,2014-01-02,2014-07-02,NA,2014-07-02T11:45,NA,NA,701,63,YEARS,F,WHITE,HISPANIC OR LATINO,Pbo,Placebo,Pbo,Placebo,USA,2013-12-26,-7,Placebo,Placebo,2014-01-02T00:00:00Z,H,2014-07-02T23:59:59Z,H,2014-01-02,2014-07-02,182,NA,2014-07-02,COMPLETED,NA,NA,NA,NA,NA,2014-07-02,Y,White,18-64,"NA",NA,NA,NA,NA
NA,CDISCPILOT01,01-701-1015,NA,NA,NA,NA,NA,NA,NA,NA,NA,NA,NA,2014-01-02,MDIS,Measurable Disease at Baseline by Investigator,NA,Investigator,RECIST 1.1,NA,NA,NA,Y,1,Y,NA,10,1015,2014-01-02,2014-07-02,2014-01-02,2014-07-02,NA,2014-07-02T11:45,NA,NA,701,63,YEARS,F,WHITE,HISPANIC OR LATINO,Pbo,Placebo,Pbo,Placebo,USA,2013-12-26,-7,Placebo,Placebo,2014-01-02T00:00:00Z,H,2014-07-02T23:59:59Z,H,2014-01-02,2014-07-02,182,NA,2014-07-02,COMPLETED,NA,NA,NA,NA,NA,2014-07-02,Y,White,18-64,"NA",NA,NA,NA,NA
RS,CDISCPILOT01,01-701-1015,2,WEEK 3,OVRLRESP,Overall Response,SD,SD,INVESTIGATOR,NA,NA,2014-01-23,3,2014-01-02,OVR,Overall Response by Investigator,Tumor Response,Investigator,RECIST 1.1,2014-01-23,NA,WEEK 3,SD,3,Y,Y,11,1015,2014-01-02,2014-07-02,2014-01-02,2014-07-02,NA,2014-07-02T11:45,NA,NA,701,63,YEARS,F,WHITE,HISPANIC OR LATINO,Pbo,Placebo,Pbo,Placebo,USA,2013-12-26,-7,Placebo,Placebo,2014-01-02T00:00:00Z,H,2014-07-02T23:59:59Z,H,2014-01-02,2014-07-02,182,NA,2014-07-02,COMPLETED,NA,NA,NA,NA,NA,2014-07-02,Y,White,18-64,"NA",NA,NA,NA,NA
RS,CDISCPILOT01,01-701-1015,3,WEEK 6,OVRLRESP,Overall Response,NE,NE,INVESTIGATOR,NA,NA,2014-02,6,2014-01-02,OVR,Overall Response by Investigator,Tumor Response,Investigator,RECIST 1.1,2014-02-28,D,WEEK 6,NE,6,Y,Y,12,1015,2014-01-02,2014-07-02,2014-01-02,2014-07-02,NA,2014-07-02T11:45,NA,NA,701,63,YEARS,F,WHITE,HISPANIC OR LATINO,Pbo,Placebo,Pbo,Placebo,USA,2013-12-26,-7,Placebo,Placebo,2014-01-02T00:00:00Z,H,2014-07-02T23:59:59Z,H,2014-01-02,2014-07-02,182,NA,2014-07-02,COMPLETED,NA,NA,NA,NA,NA,2014-07-02,Y,White,18-64,"NA",NA,NA,NA,NA
RS,CDISCPILOT01,01-701-1015,4,WEEK 9,OVRLRESP,Overall Response,CR,CR,INVESTIGATOR,NA,NA,2014-03-06,9,2014-01-02,OVR,Overall Response by Investigator,Tumor Response,Investigator,RECIST 1.1,2014-03-06,NA,WEEK 9,CR,1,Y,Y,13,1015,2014-01-02,2014-07-02,2014-01-02,2014-07-02,NA,2014-07-02T11:45,NA,NA,701,63,YEARS,F,WHITE,HISPANIC OR LATINO,Pbo,Placebo,Pbo,Placebo,USA,2013-12-26,-7,Placebo,Placebo,2014-01-02T00:00:00Z,H,2014-07-02T23:59:59Z,H,2014-01-02,2014-07-02,182,NA,2014-07-02,COMPLETED,NA,NA,NA,NA,NA,2014-07-02,Y,White,18-64,"NA",NA,NA,NA,NA
NA,CDISCPILOT01,01-701-1015,NA,NA,NA,NA,NA,NA,NA,NA,NA,NA,NA,2014-01-02,PD,Disease Progression by Investigator,Tumor Response,Investigator,RECIST 1.1,NA,NA,NA,N,0,Y,NA,14,1015,2014-01-02,2014-07-02,2014-01-02,2014-07-02,NA,2014-07-02T11:45,NA,NA,701,63,YEARS,F,WHITE,HISPANIC OR LATINO,Pbo,Placebo,Pbo,Placebo,USA,2013-12-26,-7,Placebo,Placebo,2014-01-02T00:00:00Z,H,2014-07-02T23:59:59Z,H,2014-01-02,2014-07-02,182,NA,2014-07-02,COMPLETED,NA,NA,NA,NA,NA,2014-07-02,Y,White,18-64,"NA",NA,NA,NA,NA
RS,CDISCPILOT01,01-701-1015,4,WEEK 9,OVRLRESP,Overall Response,CR,CR,INVESTIGATOR,NA,NA,2014-03-06,9,2014-01-02,RSP,Response by Investigator (confirmation not required),Tumor Response,Investigator,RECIST 1.1,2014-03-06,NA,WEEK 9,Y,1,Y,Y,15,1015,2014-01-02,2014-07-02,2014-01-02,2014-07-02,NA,2014-07-02T11:45,NA,NA,701,63,YEARS,F,WHITE,HISPANIC OR LATINO,Pbo,Placebo,Pbo,Placebo,USA,2013-12-26,-7,Placebo,Placebo,2014-01-02T00:00:00Z,H,2014-07-02T23:59:59Z,H,2014-01-02,2014-07-02,182,NA,2014-07-02,COMPLETED,NA,NA,NA,NA,NA,2014-07-02,Y,White,18-64,"NA",NA,NA,NA,NA
NA,CDISCPILOT01,01-701-1023,NA,NA,NA,NA,NA,NA,NA,NA,NA,NA,NA,2012-08-05,BCP,Best Overall Response of CR/PR by Investigator (confirmation not required),Tumor Response,Investigator,RECIST 1.1,NA,NA,NA,N,0,Y,NA,1,1023,2012-08-05,2012-09-02,2012-08-05,2012-09-01,NA,2013-02-18,NA,NA,701,64,YEARS,M,WHITE,HISPANIC OR LATINO,Pbo,Placebo,Pbo,Placebo,USA,2012-07-22,-14,Placebo,Placebo,2012-08-05T00:00:00Z,H,2012-09-01T23:59:59Z,H,2012-08-05,2012-09-01,28,NA,2012-09-02,DISCONTINUED,2013-02-18,NA,NA,NA,NA,2012-09-02,Y,White,18-64,"NA",NA,NA,NA,NA
NA,CDISCPILOT01,01-701-1023,NA,NA,NA,NA,NA,NA,NA,NA,NA,NA,NA,2012-08-05,BOR,Best Overall Response by Investigator (confirmation not required),Tumor Response,Investigator,RECIST 1.1,NA,NA,NA,MISSING,7,Y,NA,2,1023,2012-08-05,2012-09-02,2012-08-05,2012-09-01,NA,2013-02-18,NA,NA,701,64,YEARS,M,WHITE,HISPANIC OR LATINO,Pbo,Placebo,Pbo,Placebo,USA,2012-07-22,-14,Placebo,Placebo,2012-08-05T00:00:00Z,H,2012-09-01T23:59:59Z,H,2012-08-05,2012-09-01,28,NA,2012-09-02,DISCONTINUED,2013-02-18,NA,NA,NA,NA,2012-09-02,Y,White,18-64,"NA",NA,NA,NA,NA
NA,CDISCPILOT01,01-701-1023,NA,NA,NA,NA,NA,NA,NA,NA,NA,NA,NA,2012-08-05,CB,Clinical Benefit by Investigator (confirmation for response not required),Tumor Response,Investigator,RECIST 1.1,NA,NA,NA,N,0,Y,NA,3,1023,2012-08-05,2012-09-02,2012-08-05,2012-09-01,NA,2013-02-18,NA,NA,701,64,YEARS,M,WHITE,HISPANIC OR LATINO,Pbo,Placebo,Pbo,Placebo,USA,2012-07-22,-14,Placebo,Placebo,2012-08-05T00:00:00Z,H,2012-09-01T23:59:59Z,H,2012-08-05,2012-09-01,28,NA,2012-09-02,DISCONTINUED,2013-02-18,NA,NA,NA,NA,2012-09-02,Y,White,18-64,"NA",NA,NA,NA,NA
NA,CDISCPILOT01,01-701-1023,NA,NA,NA,NA,NA,NA,NA,NA,NA,NA,NA,2012-08-05,CBCP,Best Confirmed Overall Response of CR/PR by Investigator,Tumor Response,Investigator,RECIST 1.1,NA,NA,NA,N,0,Y,NA,4,1023,2012-08-05,2012-09-02,2012-08-05,2012-09-01,NA,2013-02-18,NA,NA,701,64,YEARS,M,WHITE,HISPANIC OR LATINO,Pbo,Placebo,Pbo,Placebo,USA,2012-07-22,-14,Placebo,Placebo,2012-08-05T00:00:00Z,H,2012-09-01T23:59:59Z,H,2012-08-05,2012-09-01,28,NA,2012-09-02,DISCONTINUED,2013-02-18,NA,NA,NA,NA,2012-09-02,Y,White,18-64,"NA",NA,NA,NA,NA
NA,CDISCPILOT01,01-701-1023,NA,NA,NA,NA,NA,NA,NA,NA,NA,NA,NA,2012-08-05,CBOR,Best Confirmed Overall Response by Investigator,Tumor Response,Investigator,RECIST 1.1,NA,NA,NA,MISSING,7,Y,NA,5,1023,2012-08-05,2012-09-02,2012-08-05,2012-09-01,NA,2013-02-18,NA,NA,701,64,YEARS,M,WHITE,HISPANIC OR LATINO,Pbo,Placebo,Pbo,Placebo,USA,2012-07-22,-14,Placebo,Placebo,2012-08-05T00:00:00Z,H,2012-09-01T23:59:59Z,H,2012-08-05,2012-09-01,28,NA,2012-09-02,DISCONTINUED,2013-02-18,NA,NA,NA,NA,2012-09-02,Y,White,18-64,"NA",NA,NA,NA,NA
NA,CDISCPILOT01,01-701-1023,NA,NA,NA,NA,NA,NA,NA,NA,NA,NA,NA,2012-08-05,CCB,Confirmed Clinical Benefit by Investigator,Tumor Response,Investigator,RECIST 1.1,NA,NA,NA,N,0,Y,NA,6,1023,2012-08-05,2012-09-02,2012-08-05,2012-09-01,NA,2013-02-18,NA,NA,701,64,YEARS,M,WHITE,HISPANIC OR LATINO,Pbo,Placebo,Pbo,Placebo,USA,2012-07-22,-14,Placebo,Placebo,2012-08-05T00:00:00Z,H,2012-09-01T23:59:59Z,H,2012-08-05,2012-09-01,28,NA,2012-09-02,DISCONTINUED,2013-02-18,NA,NA,NA,NA,2012-09-02,Y,White,18-64,"NA",NA,NA,NA,NA
NA,CDISCPILOT01,01-701-1023,NA,NA,NA,NA,NA,NA,NA,NA,NA,NA,NA,2012-08-05,CRSP,Confirmed Response by Investigator,Tumor Response,Investigator,RECIST 1.1,NA,NA,NA,N,0,Y,NA,7,1023,2012-08-05,2012-09-02,2012-08-05,2012-09-01,NA,2013-02-18,NA,NA,701,64,YEARS,M,WHITE,HISPANIC OR LATINO,Pbo,Placebo,Pbo,Placebo,USA,2012-07-22,-14,Placebo,Placebo,2012-08-05T00:00:00Z,H,2012-09-01T23:59:59Z,H,2012-08-05,2012-09-01,28,NA,2012-09-02,DISCONTINUED,2013-02-18,NA,NA,NA,NA,2012-09-02,Y,White,18-64,"NA",NA,NA,NA,NA
NA,CDISCPILOT01,01-701-1023,NA,NA,NA,NA,NA,NA,NA,NA,NA,NA,NA,2012-08-05,DEATH,Death,Reference Event,NA,NA,NA,NA,NA,N,0,Y,NA,8,1023,2012-08-05,2012-09-02,2012-08-05,2012-09-01,NA,2013-02-18,NA,NA,701,64,YEARS,M,WHITE,HISPANIC OR LATINO,Pbo,Placebo,Pbo,Placebo,USA,2012-07-22,-14,Placebo,Placebo,2012-08-05T00:00:00Z,H,2012-09-01T23:59:59Z,H,2012-08-05,2012-09-01,28,NA,2012-09-02,DISCONTINUED,2013-02-18,NA,NA,NA,NA,2012-09-02,Y,White,18-64,"NA",NA,NA,NA,NA
NA,CDISCPILOT01,01-701-1023,NA,NA,NA,NA,NA,NA,NA,NA,NA,NA,NA,2012-08-05,LSTA,Last Disease Assessment by Investigator,Tumor Response,Investigator,RECIST 1.1,NA,NA,NA,NA,NA,Y,NA,9,1023,2012-08-05,2012-09-02,2012-08-05,2012-09-01,NA,2013-02-18,NA,NA,701,64,YEARS,M,WHITE,HISPANIC OR LATINO,Pbo,Placebo,Pbo,Placebo,USA,2012-07-22,-14,Placebo,Placebo,2012-08-05T00:00:00Z,H,2012-09-01T23:59:59Z,H,2012-08-05,2012-09-01,28,NA,2012-09-02,DISCONTINUED,2013-02-18,NA,NA,NA,NA,2012-09-02,Y,White,18-64,"NA",NA,NA,NA,NA
NA,CDISCPILOT01,01-701-1023,NA,NA,NA,NA,NA,NA,NA,NA,NA,NA,NA,2012-08-05,MDIS,Measurable Disease at Baseline by Investigator,NA,Investigator,RECIST 1.1,NA,NA,NA,N,0,Y,NA,10,1023,2012-08-05,2012-09-02,2012-08-05,2012-09-01,NA,2013-02-18,NA,NA,701,64,YEARS,M,WHITE,HISPANIC OR LATINO,Pbo,Placebo,Pbo,Placebo,USA,2012-07-22,-14,Placebo,Placebo,2012-08-05T00:00:00Z,H,2012-09-01T23:59:59Z,H,2012-08-05,2012-09-01,28,NA,2012-09-02,DISCONTINUED,2013-02-18,NA,NA,NA,NA,2012-09-02,Y,White,18-64,"NA",NA,NA,NA,NA
NA,CDISCPILOT01,01-701-1023,NA,NA,NA,NA,NA,NA,NA,NA,NA,NA,NA,2012-08-05,PD,Disease Progression by Investigator,Tumor Response,Investigator,RECIST 1.1,NA,NA,NA,N,0,Y,NA,11,1023,2012-08-05,2012-09-02,2012-08-05,2012-09-01,NA,2013-02-18,NA,NA,701,64,YEARS,M,WHITE,HISPANIC OR LATINO,Pbo,Placebo,Pbo,Placebo,USA,2012-07-22,-14,Placebo,Placebo,2012-08-05T00:00:00Z,H,2012-09-01T23:59:59Z,H,2012-08-05,2012-09-01,28,NA,2012-09-02,DISCONTINUED,2013-02-18,NA,NA,NA,NA,2012-09-02,Y,White,18-64,"NA",NA,NA,NA,NA
NA,CDISCPILOT01,01-701-1023,NA,NA,NA,NA,NA,NA,NA,NA,NA,NA,NA,2012-08-05,RSP,Response by Investigator (confirmation not required),Tumor Response,Investigator,RECIST 1.1,NA,NA,NA,N,0,Y,NA,12,1023,2012-08-05,2012-09-02,2012-08-05,2012-09-01,NA,2013-02-18,NA,NA,701,64,YEARS,M,WHITE,HISPANIC OR LATINO,Pbo,Placebo,Pbo,Placebo,USA,2012-07-22,-14,Placebo,Placebo,2012-08-05T00:00:00Z,H,2012-09-01T23:59:59Z,H,2012-08-05,2012-09-01,28,NA,2012-09-02,DISCONTINUED,2013-02-18,NA,NA,NA,NA,2012-09-02,Y,White,18-64,"NA",NA,NA,NA,NA
NA,CDISCPILOT01,01-701-1028,NA,NA,NA,NA,NA,NA,NA,NA,NA,NA,NA,2013-07-19,BCP,Best Overall Response of CR/PR by Investigator (confirmation not required),Tumor Response,Investigator,RECIST 1.1,NA,NA,NA,N,0,Y,NA,1,1028,2013-07-19,2014-01-14,2013-07-19,2014-01-14,NA,2014-01-14T11:10,NA,NA,701,71,YEARS,M,WHITE,NOT HISPANIC OR LATINO,Xan_Hi,Xanomeline High Dose,Xan_Hi,Xanomeline High Dose,USA,2013-07-11,-8,Xanomeline High Dose,Xanomeline High Dose,2013-07-19T00:00:00Z,H,2014-01-14T23:59:59Z,H,2013-07-19,2014-01-14,180,NA,2014-01-14,COMPLETED,NA,NA,NA,NA,NA,2014-01-14,Y,White,>64,"NA",NA,NA,NA,NA
RS,CDISCPILOT01,01-701-1028,3,WEEK 6,OVRLRESP,Overall Response,PD,PD,INVESTIGATOR,NA,NA,2013-08-30,6,2013-07-19,BOR,Best Overall Response by Investigator (confirmation not required),Tumor Response,Investigator,RECIST 1.1,2013-08-30,NA,WEEK 6,PD,5,Y,Y,2,1028,2013-07-19,2014-01-14,2013-07-19,2014-01-14,NA,2014-01-14T11:10,NA,NA,701,71,YEARS,M,WHITE,NOT HISPANIC OR LATINO,Xan_Hi,Xanomeline High Dose,Xan_Hi,Xanomeline High Dose,USA,2013-07-11,-8,Xanomeline High Dose,Xanomeline High Dose,2013-07-19T00:00:00Z,H,2014-01-14T23:59:59Z,H,2013-07-19,2014-01-14,180,NA,2014-01-14,COMPLETED,NA,NA,NA,NA,NA,2014-01-14,Y,White,>64,"NA",NA,NA,NA,NA
NA,CDISCPILOT01,01-701-1028,NA,NA,NA,NA,NA,NA,NA,NA,NA,NA,NA,2013-07-19,CB,Clinical Benefit by Investigator (confirmation for response not required),Tumor Response,Investigator,RECIST 1.1,NA,NA,NA,N,0,Y,NA,3,1028,2013-07-19,2014-01-14,2013-07-19,2014-01-14,NA,2014-01-14T11:10,NA,NA,701,71,YEARS,M,WHITE,NOT HISPANIC OR LATINO,Xan_Hi,Xanomeline High Dose,Xan_Hi,Xanomeline High Dose,USA,2013-07-11,-8,Xanomeline High Dose,Xanomeline High Dose,2013-07-19T00:00:00Z,H,2014-01-14T23:59:59Z,H,2013-07-19,2014-01-14,180,NA,2014-01-14,COMPLETED,NA,NA,NA,NA,NA,2014-01-14,Y,White,>64,"NA",NA,NA,NA,NA
NA,CDISCPILOT01,01-701-1028,NA,NA,NA,NA,NA,NA,NA,NA,NA,NA,NA,2013-07-19,CBCP,Best Confirmed Overall Response of CR/PR by Investigator,Tumor Response,Investigator,RECIST 1.1,NA,NA,NA,N,0,Y,NA,4,1028,2013-07-19,2014-01-14,2013-07-19,2014-01-14,NA,2014-01-14T11:10,NA,NA,701,71,YEARS,M,WHITE,NOT HISPANIC OR LATINO,Xan_Hi,Xanomeline High Dose,Xan_Hi,Xanomeline High Dose,USA,2013-07-11,-8,Xanomeline High Dose,Xanomeline High Dose,2013-07-19T00:00:00Z,H,2014-01-14T23:59:59Z,H,2013-07-19,2014-01-14,180,NA,2014-01-14,COMPLETED,NA,NA,NA,NA,NA,2014-01-14,Y,White,>64,"NA",NA,NA,NA,NA
RS,CDISCPILOT01,01-701-1028,3,WEEK 6,OVRLRESP,Overall Response,PD,PD,INVESTIGATOR,NA,NA,2013-08-30,6,2013-07-19,CBOR,Best Confirmed Overall Response by Investigator,Tumor Response,Investigator,RECIST 1.1,2013-08-30,NA,WEEK 6,PD,5,Y,Y,5,1028,2013-07-19,2014-01-14,2013-07-19,2014-01-14,NA,2014-01-14T11:10,NA,NA,701,71,YEARS,M,WHITE,NOT HISPANIC OR LATINO,Xan_Hi,Xanomeline High Dose,Xan_Hi,Xanomeline High Dose,USA,2013-07-11,-8,Xanomeline High Dose,Xanomeline High Dose,2013-07-19T00:00:00Z,H,2014-01-14T23:59:59Z,H,2013-07-19,2014-01-14,180,NA,2014-01-14,COMPLETED,NA,NA,NA,NA,NA,2014-01-14,Y,White,>64,"NA",NA,NA,NA,NA
NA,CDISCPILOT01,01-701-1028,NA,NA,NA,NA,NA,NA,NA,NA,NA,NA,NA,2013-07-19,CCB,Confirmed Clinical Benefit by Investigator,Tumor Response,Investigator,RECIST 1.1,NA,NA,NA,N,0,Y,NA,6,1028,2013-07-19,2014-01-14,2013-07-19,2014-01-14,NA,2014-01-14T11:10,NA,NA,701,71,YEARS,M,WHITE,NOT HISPANIC OR LATINO,Xan_Hi,Xanomeline High Dose,Xan_Hi,Xanomeline High Dose,USA,2013-07-11,-8,Xanomeline High Dose,Xanomeline High Dose,2013-07-19T00:00:00Z,H,2014-01-14T23:59:59Z,H,2013-07-19,2014-01-14,180,NA,2014-01-14,COMPLETED,NA,NA,NA,NA,NA,2014-01-14,Y,White,>64,"NA",NA,NA,NA,NA
NA,CDISCPILOT01,01-701-1028,NA,NA,NA,NA,NA,NA,NA,NA,NA,NA,NA,2013-07-19,CRSP,Confirmed Response by Investigator,Tumor Response,Investigator,RECIST 1.1,NA,NA,NA,N,0,Y,NA,7,1028,2013-07-19,2014-01-14,2013-07-19,2014-01-14,NA,2014-01-14T11:10,NA,NA,701,71,YEARS,M,WHITE,NOT HISPANIC OR LATINO,Xan_Hi,Xanomeline High Dose,Xan_Hi,Xanomeline High Dose,USA,2013-07-11,-8,Xanomeline High Dose,Xanomeline High Dose,2013-07-19T00:00:00Z,H,2014-01-14T23:59:59Z,H,2013-07-19,2014-01-14,180,NA,2014-01-14,COMPLETED,NA,NA,NA,NA,NA,2014-01-14,Y,White,>64,"NA",NA,NA,NA,NA
NA,CDISCPILOT01,01-701-1028,NA,NA,NA,NA,NA,NA,NA,NA,NA,NA,NA,2013-07-19,DEATH,Death,Reference Event,NA,NA,NA,NA,NA,N,0,Y,NA,8,1028,2013-07-19,2014-01-14,2013-07-19,2014-01-14,NA,2014-01-14T11:10,NA,NA,701,71,YEARS,M,WHITE,NOT HISPANIC OR LATINO,Xan_Hi,Xanomeline High Dose,Xan_Hi,Xanomeline High Dose,USA,2013-07-11,-8,Xanomeline High Dose,Xanomeline High Dose,2013-07-19T00:00:00Z,H,2014-01-14T23:59:59Z,H,2013-07-19,2014-01-14,180,NA,2014-01-14,COMPLETED,NA,NA,NA,NA,NA,2014-01-14,Y,White,>64,"NA",NA,NA,NA,NA
RS,CDISCPILOT01,01-701-1028,4,WEEK 9,OVRLRESP,Overall Response,SD,SD,INVESTIGATOR,NA,NA,2013-09-20,9,2013-07-19,LSTA,Last Disease Assessment by Investigator,Tumor Response,Investigator,RECIST 1.1,2013-09-20,NA,WEEK 9,SD,3,Y,NA,9,1028,2013-07-19,2014-01-14,2013-07-19,2014-01-14,NA,2014-01-14T11:10,NA,NA,701,71,YEARS,M,WHITE,NOT HISPANIC OR LATINO,Xan_Hi,Xanomeline High Dose,Xan_Hi,Xanomeline High Dose,USA,2013-07-11,-8,Xanomeline High Dose,Xanomeline High Dose,2013-07-19T00:00:00Z,H,2014-01-14T23:59:59Z,H,2013-07-19,2014-01-14,180,NA,2014-01-14,COMPLETED,NA,NA,NA,NA,NA,2014-01-14,Y,White,>64,"NA",NA,NA,NA,NA
NA,CDISCPILOT01,01-701-1028,NA,NA,NA,NA,NA,NA,NA,NA,NA,NA,NA,2013-07-19,MDIS,Measurable Disease at Baseline by Investigator,NA,Investigator,RECIST 1.1,NA,NA,NA,Y,1,Y,NA,10,1028,2013-07-19,2014-01-14,2013-07-19,2014-01-14,NA,2014-01-14T11:10,NA,NA,701,71,YEARS,M,WHITE,NOT HISPANIC OR LATINO,Xan_Hi,Xanomeline High Dose,Xan_Hi,Xanomeline High Dose,USA,2013-07-11,-8,Xanomeline High Dose,Xanomeline High Dose,2013-07-19T00:00:00Z,H,2014-01-14T23:59:59Z,H,2013-07-19,2014-01-14,180,NA,2014-01-14,COMPLETED,NA,NA,NA,NA,NA,2014-01-14,Y,White,>64,"NA",NA,NA,NA,NA
RS,CDISCPILOT01,01-701-1028,2,WEEK 3,OVRLRESP,Overall Response,SD,SD,INVESTIGATOR,NA,NA,2013-08-09,3,2013-07-19,OVR,Overall Response by Investigator,Tumor Response,Investigator,RECIST 1.1,2013-08-09,NA,WEEK 3,SD,3,Y,Y,11,1028,2013-07-19,2014-01-14,2013-07-19,2014-01-14,NA,2014-01-14T11:10,NA,NA,701,71,YEARS,M,WHITE,NOT HISPANIC OR LATINO,Xan_Hi,Xanomeline High Dose,Xan_Hi,Xanomeline High Dose,USA,2013-07-11,-8,Xanomeline High Dose,Xanomeline High Dose,2013-07-19T00:00:00Z,H,2014-01-14T23:59:59Z,H,2013-07-19,2014-01-14,180,NA,2014-01-14,COMPLETED,NA,NA,NA,NA,NA,2014-01-14,Y,White,>64,"NA",NA,NA,NA,NA
RS,CDISCPILOT01,01-701-1028,3,WEEK 6,OVRLRESP,Overall Response,PD,PD,INVESTIGATOR,NA,NA,2013-08-30,6,2013-07-19,OVR,Overall Response by Investigator,Tumor Response,Investigator,RECIST 1.1,2013-08-30,NA,WEEK 6,PD,5,Y,Y,12,1028,2013-07-19,2014-01-14,2013-07-19,2014-01-14,NA,2014-01-14T11:10,NA,NA,701,71,YEARS,M,WHITE,NOT HISPANIC OR LATINO,Xan_Hi,Xanomeline High Dose,Xan_Hi,Xanomeline High Dose,USA,2013-07-11,-8,Xanomeline High Dose,Xanomeline High Dose,2013-07-19T00:00:00Z,H,2014-01-14T23:59:59Z,H,2013-07-19,2014-01-14,180,NA,2014-01-14,COMPLETED,NA,NA,NA,NA,NA,2014-01-14,Y,White,>64,"NA",NA,NA,NA,NA
RS,CDISCPILOT01,01-701-1028,4,WEEK 9,OVRLRESP,Overall Response,SD,SD,INVESTIGATOR,NA,NA,2013-09-20,9,2013-07-19,OVR,Overall Response by Investigator,Tumor Response,Investigator,RECIST 1.1,2013-09-20,NA,WEEK 9,SD,3,Y,NA,13,1028,2013-07-19,2014-01-14,2013-07-19,2014-01-14,NA,2014-01-14T11:10,NA,NA,701,71,YEARS,M,WHITE,NOT HISPANIC OR LATINO,Xan_Hi,Xanomeline High Dose,Xan_Hi,Xanomeline High Dose,USA,2013-07-11,-8,Xanomeline High Dose,Xanomeline High Dose,2013-07-19T00:00:00Z,H,2014-01-14T23:59:59Z,H,2013-07-19,2014-01-14,180,NA,2014-01-14,COMPLETED,NA,NA,NA,NA,NA,2014-01-14,Y,White,>64,"NA",NA,NA,NA,NA
RS,CDISCPILOT01,01-701-1028,3,WEEK 6,OVRLRESP,Overall Response,PD,PD,INVESTIGATOR,NA,NA,2013-08-30,6,2013-07-19,PD,Disease Progression by Investigator,Tumor Response,Investigator,RECIST 1.1,2013-08-30,NA,WEEK 6,Y,1,Y,Y,14,1028,2013-07-19,2014-01-14,2013-07-19,2014-01-14,NA,2014-01-14T11:10,NA,NA,701,71,YEARS,M,WHITE,NOT HISPANIC OR LATINO,Xan_Hi,Xanomeline High Dose,Xan_Hi,Xanomeline High Dose,USA,2013-07-11,-8,Xanomeline High Dose,Xanomeline High Dose,2013-07-19T00:00:00Z,H,2014-01-14T23:59:59Z,H,2013-07-19,2014-01-14,180,NA,2014-01-14,COMPLETED,NA,NA,NA,NA,NA,2014-01-14,Y,White,>64,"NA",NA,NA,NA,NA
NA,CDISCPILOT01,01-701-1028,NA,NA,NA,NA,NA,NA,NA,NA,NA,NA,NA,2013-07-19,RSP,Response by Investigator (confirmation not required),Tumor Response,Investigator,RECIST 1.1,NA,NA,NA,N,0,Y,NA,15,1028,2013-07-19,2014-01-14,2013-07-19,2014-01-14,NA,2014-01-14T11:10,NA,NA,701,71,YEARS,M,WHITE,NOT HISPANIC OR LATINO,Xan_Hi,Xanomeline High Dose,Xan_Hi,Xanomeline High Dose,USA,2013-07-11,-8,Xanomeline High Dose,Xanomeline High Dose,2013-07-19T00:00:00Z,H,2014-01-14T23:59:59Z,H,2013-07-19,2014-01-14,180,NA,2014-01-14,COMPLETED,NA,NA,NA,NA,NA,2014-01-14,Y,White,>64,"NA",NA,NA,NA,NA
NA,CDISCPILOT01,01-701-1033,NA,NA,NA,NA,NA,NA,NA,NA,NA,NA,NA,2014-03-18,BCP,Best Overall Response of CR/PR by Investigator (confirmation not required),Tumor Response,Investigator,RECIST 1.1,NA,NA,NA,N,0,Y,NA,1,1033,2014-03-18,2014-04-14,2014-03-18,2014-03-31,NA,2014-09-15,NA,NA,701,74,YEARS,M,WHITE,NOT HISPANIC OR LATINO,Xan_Lo,Xanomeline Low Dose,Xan_Lo,Xanomeline Low Dose,USA,2014-03-10,-8,Xanomeline Low Dose,Xanomeline Low Dose,2014-03-18T00:00:00Z,H,2014-03-31T23:59:59Z,H,2014-03-18,2014-03-31,14,NA,2014-04-14,DISCONTINUED,2014-09-15,NA,NA,NA,NA,2014-04-14,Y,White,>64,"NA",NA,NA,NA,NA
NA,CDISCPILOT01,01-701-1033,NA,NA,NA,NA,NA,NA,NA,NA,NA,NA,NA,2014-03-18,BOR,Best Overall Response by Investigator (confirmation not required),Tumor Response,Investigator,RECIST 1.1,NA,NA,NA,MISSING,7,Y,NA,2,1033,2014-03-18,2014-04-14,2014-03-18,2014-03-31,NA,2014-09-15,NA,NA,701,74,YEARS,M,WHITE,NOT HISPANIC OR LATINO,Xan_Lo,Xanomeline Low Dose,Xan_Lo,Xanomeline Low Dose,USA,2014-03-10,-8,Xanomeline Low Dose,Xanomeline Low Dose,2014-03-18T00:00:00Z,H,2014-03-31T23:59:59Z,H,2014-03-18,2014-03-31,14,NA,2014-04-14,DISCONTINUED,2014-09-15,NA,NA,NA,NA,2014-04-14,Y,White,>64,"NA",NA,NA,NA,NA
NA,CDISCPILOT01,01-701-1033,NA,NA,NA,NA,NA,NA,NA,NA,NA,NA,NA,2014-03-18,CB,Clinical Benefit by Investigator (confirmation for response not required),Tumor Response,Investigator,RECIST 1.1,NA,NA,NA,N,0,Y,NA,3,1033,2014-03-18,2014-04-14,2014-03-18,2014-03-31,NA,2014-09-15,NA,NA,701,74,YEARS,M,WHITE,NOT HISPANIC OR LATINO,Xan_Lo,Xanomeline Low Dose,Xan_Lo,Xanomeline Low Dose,USA,2014-03-10,-8,Xanomeline Low Dose,Xanomeline Low Dose,2014-03-18T00:00:00Z,H,2014-03-31T23:59:59Z,H,2014-03-18,2014-03-31,14,NA,2014-04-14,DISCONTINUED,2014-09-15,NA,NA,NA,NA,2014-04-14,Y,White,>64,"NA",NA,NA,NA,NA
NA,CDISCPILOT01,01-701-1033,NA,NA,NA,NA,NA,NA,NA,NA,NA,NA,NA,2014-03-18,CBCP,Best Confirmed Overall Response of CR/PR by Investigator,Tumor Response,Investigator,RECIST 1.1,NA,NA,NA,N,0,Y,NA,4,1033,2014-03-18,2014-04-14,2014-03-18,2014-03-31,NA,2014-09-15,NA,NA,701,74,YEARS,M,WHITE,NOT HISPANIC OR LATINO,Xan_Lo,Xanomeline Low Dose,Xan_Lo,Xanomeline Low Dose,USA,2014-03-10,-8,Xanomeline Low Dose,Xanomeline Low Dose,2014-03-18T00:00:00Z,H,2014-03-31T23:59:59Z,H,2014-03-18,2014-03-31,14,NA,2014-04-14,DISCONTINUED,2014-09-15,NA,NA,NA,NA,2014-04-14,Y,White,>64,"NA",NA,NA,NA,NA
NA,CDISCPILOT01,01-701-1033,NA,NA,NA,NA,NA,NA,NA,NA,NA,NA,NA,2014-03-18,CBOR,Best Confirmed Overall Response by Investigator,Tumor Response,Investigator,RECIST 1.1,NA,NA,NA,MISSING,7,Y,NA,5,1033,2014-03-18,2014-04-14,2014-03-18,2014-03-31,NA,2014-09-15,NA,NA,701,74,YEARS,M,WHITE,NOT HISPANIC OR LATINO,Xan_Lo,Xanomeline Low Dose,Xan_Lo,Xanomeline Low Dose,USA,2014-03-10,-8,Xanomeline Low Dose,Xanomeline Low Dose,2014-03-18T00:00:00Z,H,2014-03-31T23:59:59Z,H,2014-03-18,2014-03-31,14,NA,2014-04-14,DISCONTINUED,2014-09-15,NA,NA,NA,NA,2014-04-14,Y,White,>64,"NA",NA,NA,NA,NA
NA,CDISCPILOT01,01-701-1033,NA,NA,NA,NA,NA,NA,NA,NA,NA,NA,NA,2014-03-18,CCB,Confirmed Clinical Benefit by Investigator,Tumor Response,Investigator,RECIST 1.1,NA,NA,NA,N,0,Y,NA,6,1033,2014-03-18,2014-04-14,2014-03-18,2014-03-31,NA,2014-09-15,NA,NA,701,74,YEARS,M,WHITE,NOT HISPANIC OR LATINO,Xan_Lo,Xanomeline Low Dose,Xan_Lo,Xanomeline Low Dose,USA,2014-03-10,-8,Xanomeline Low Dose,Xanomeline Low Dose,2014-03-18T00:00:00Z,H,2014-03-31T23:59:59Z,H,2014-03-18,2014-03-31,14,NA,2014-04-14,DISCONTINUED,2014-09-15,NA,NA,NA,NA,2014-04-14,Y,White,>64,"NA",NA,NA,NA,NA
NA,CDISCPILOT01,01-701-1033,NA,NA,NA,NA,NA,NA,NA,NA,NA,NA,NA,2014-03-18,CRSP,Confirmed Response by Investigator,Tumor Response,Investigator,RECIST 1.1,NA,NA,NA,N,0,Y,NA,7,1033,2014-03-18,2014-04-14,2014-03-18,2014-03-31,NA,2014-09-15,NA,NA,701,74,YEARS,M,WHITE,NOT HISPANIC OR LATINO,Xan_Lo,Xanomeline Low Dose,Xan_Lo,Xanomeline Low Dose,USA,2014-03-10,-8,Xanomeline Low Dose,Xanomeline Low Dose,2014-03-18T00:00:00Z,H,2014-03-31T23:59:59Z,H,2014-03-18,2014-03-31,14,NA,2014-04-14,DISCONTINUED,2014-09-15,NA,NA,NA,NA,2014-04-14,Y,White,>64,"NA",NA,NA,NA,NA
NA,CDISCPILOT01,01-701-1033,NA,NA,NA,NA,NA,NA,NA,NA,NA,NA,NA,2014-03-18,DEATH,Death,Reference Event,NA,NA,NA,NA,NA,N,0,Y,NA,8,1033,2014-03-18,2014-04-14,2014-03-18,2014-03-31,NA,2014-09-15,NA,NA,701,74,YEARS,M,WHITE,NOT HISPANIC OR LATINO,Xan_Lo,Xanomeline Low Dose,Xan_Lo,Xanomeline Low Dose,USA,2014-03-10,-8,Xanomeline Low Dose,Xanomeline Low Dose,2014-03-18T00:00:00Z,H,2014-03-31T23:59:59Z,H,2014-03-18,2014-03-31,14,NA,2014-04-14,DISCONTINUED,2014-09-15,NA,NA,NA,NA,2014-04-14,Y,White,>64,"NA",NA,NA,NA,NA
NA,CDISCPILOT01,01-701-1033,NA,NA,NA,NA,NA,NA,NA,NA,NA,NA,NA,2014-03-18,LSTA,Last Disease Assessment by Investigator,Tumor Response,Investigator,RECIST 1.1,NA,NA,NA,NA,NA,Y,NA,9,1033,2014-03-18,2014-04-14,2014-03-18,2014-03-31,NA,2014-09-15,NA,NA,701,74,YEARS,M,WHITE,NOT HISPANIC OR LATINO,Xan_Lo,Xanomeline Low Dose,Xan_Lo,Xanomeline Low Dose,USA,2014-03-10,-8,Xanomeline Low Dose,Xanomeline Low Dose,2014-03-18T00:00:00Z,H,2014-03-31T23:59:59Z,H,2014-03-18,2014-03-31,14,NA,2014-04-14,DISCONTINUED,2014-09-15,NA,NA,NA,NA,2014-04-14,Y,White,>64,"NA",NA,NA,NA,NA
NA,CDISCPILOT01,01-701-1033,NA,NA,NA,NA,NA,NA,NA,NA,NA,NA,NA,2014-03-18,MDIS,Measurable Disease at Baseline by Investigator,NA,Investigator,RECIST 1.1,NA,NA,NA,N,0,Y,NA,10,1033,2014-03-18,2014-04-14,2014-03-18,2014-03-31,NA,2014-09-15,NA,NA,701,74,YEARS,M,WHITE,NOT HISPANIC OR LATINO,Xan_Lo,Xanomeline Low Dose,Xan_Lo,Xanomeline Low Dose,USA,2014-03-10,-8,Xanomeline Low Dose,Xanomeline Low Dose,2014-03-18T00:00:00Z,H,2014-03-31T23:59:59Z,H,2014-03-18,2014-03-31,14,NA,2014-04-14,DISCONTINUED,2014-09-15,NA,NA,NA,NA,2014-04-14,Y,White,>64,"NA",NA,NA,NA,NA
NA,CDISCPILOT01,01-701-1033,NA,NA,NA,NA,NA,NA,NA,NA,NA,NA,NA,2014-03-18,PD,Disease Progression by Investigator,Tumor Response,Investigator,RECIST 1.1,NA,NA,NA,N,0,Y,NA,11,1033,2014-03-18,2014-04-14,2014-03-18,2014-03-31,NA,2014-09-15,NA,NA,701,74,YEARS,M,WHITE,NOT HISPANIC OR LATINO,Xan_Lo,Xanomeline Low Dose,Xan_Lo,Xanomeline Low Dose,USA,2014-03-10,-8,Xanomeline Low Dose,Xanomeline Low Dose,2014-03-18T00:00:00Z,H,2014-03-31T23:59:59Z,H,2014-03-18,2014-03-31,14,NA,2014-04-14,DISCONTINUED,2014-09-15,NA,NA,NA,NA,2014-04-14,Y,White,>64,"NA",NA,NA,NA,NA
NA,CDISCPILOT01,01-701-1033,NA,NA,NA,NA,NA,NA,NA,NA,NA,NA,NA,2014-03-18,RSP,Response by Investigator (confirmation not required),Tumor Response,Investigator,RECIST 1.1,NA,NA,NA,N,0,Y,NA,12,1033,2014-03-18,2014-04-14,2014-03-18,2014-03-31,NA,2014-09-15,NA,NA,701,74,YEARS,M,WHITE,NOT HISPANIC OR LATINO,Xan_Lo,Xanomeline Low Dose,Xan_Lo,Xanomeline Low Dose,USA,2014-03-10,-8,Xanomeline Low Dose,Xanomeline Low Dose,2014-03-18T00:00:00Z,H,2014-03-31T23:59:59Z,H,2014-03-18,2014-03-31,14,NA,2014-04-14,DISCONTINUED,2014-09-15,NA,NA,NA,NA,2014-04-14,Y,White,>64,"NA",NA,NA,NA,NA
NA,CDISCPILOT01,01-701-1034,NA,NA,NA,NA,NA,NA,NA,NA,NA,NA,NA,2014-07-01,BCP,Best Overall Response of CR/PR by Investigator (confirmation not required),Tumor Response,Investigator,RECIST 1.1,NA,NA,NA,N,0,Y,NA,1,1034,2014-07-01,2014-12-30,2014-07-01,2014-12-30,NA,2014-12-30T09:50,NA,NA,701,77,YEARS,F,WHITE,NOT HISPANIC OR LATINO,Xan_Hi,Xanomeline High Dose,Xan_Hi,Xanomeline High Dose,USA,2014-06-24,-7,Xanomeline High Dose,Xanomeline High Dose,2014-07-01T00:00:00Z,H,2014-12-30T23:59:59Z,H,2014-07-01,2014-12-30,183,NA,2014-12-30,COMPLETED,NA,NA,NA,NA,NA,2014-12-30,Y,White,>64,"NA",NA,NA,NA,NA
RS,CDISCPILOT01,01-701-1034,3,WEEK 6,OVRLRESP,Overall Response,NON-CR/NON-PD,NON-CR/NON-PD,INVESTIGATOR,NA,NA,2014-08-12,6,2014-07-01,BOR,Best Overall Response by Investigator (confirmation not required),Tumor Response,Investigator,RECIST 1.1,2014-08-12,NA,WEEK 6,NON-CR/NON-PD,4,Y,Y,2,1034,2014-07-01,2014-12-30,2014-07-01,2014-12-30,NA,2014-12-30T09:50,NA,NA,701,77,YEARS,F,WHITE,NOT HISPANIC OR LATINO,Xan_Hi,Xanomeline High Dose,Xan_Hi,Xanomeline High Dose,USA,2014-06-24,-7,Xanomeline High Dose,Xanomeline High Dose,2014-07-01T00:00:00Z,H,2014-12-30T23:59:59Z,H,2014-07-01,2014-12-30,183,NA,2014-12-30,COMPLETED,NA,NA,NA,NA,NA,2014-12-30,Y,White,>64,"NA",NA,NA,NA,NA
RS,CDISCPILOT01,01-701-1034,3,WEEK 6,OVRLRESP,Overall Response,NON-CR/NON-PD,NON-CR/NON-PD,INVESTIGATOR,NA,NA,2014-08-12,6,2014-07-01,CB,Clinical Benefit by Investigator (confirmation for response not required),Tumor Response,Investigator,RECIST 1.1,2014-08-12,NA,WEEK 6,Y,1,Y,Y,3,1034,2014-07-01,2014-12-30,2014-07-01,2014-12-30,NA,2014-12-30T09:50,NA,NA,701,77,YEARS,F,WHITE,NOT HISPANIC OR LATINO,Xan_Hi,Xanomeline High Dose,Xan_Hi,Xanomeline High Dose,USA,2014-06-24,-7,Xanomeline High Dose,Xanomeline High Dose,2014-07-01T00:00:00Z,H,2014-12-30T23:59:59Z,H,2014-07-01,2014-12-30,183,NA,2014-12-30,COMPLETED,NA,NA,NA,NA,NA,2014-12-30,Y,White,>64,"NA",NA,NA,NA,NA
NA,CDISCPILOT01,01-701-1034,NA,NA,NA,NA,NA,NA,NA,NA,NA,NA,NA,2014-07-01,CBCP,Best Confirmed Overall Response of CR/PR by Investigator,Tumor Response,Investigator,RECIST 1.1,NA,NA,NA,N,0,Y,NA,4,1034,2014-07-01,2014-12-30,2014-07-01,2014-12-30,NA,2014-12-30T09:50,NA,NA,701,77,YEARS,F,WHITE,NOT HISPANIC OR LATINO,Xan_Hi,Xanomeline High Dose,Xan_Hi,Xanomeline High Dose,USA,2014-06-24,-7,Xanomeline High Dose,Xanomeline High Dose,2014-07-01T00:00:00Z,H,2014-12-30T23:59:59Z,H,2014-07-01,2014-12-30,183,NA,2014-12-30,COMPLETED,NA,NA,NA,NA,NA,2014-12-30,Y,White,>64,"NA",NA,NA,NA,NA
RS,CDISCPILOT01,01-701-1034,3,WEEK 6,OVRLRESP,Overall Response,NON-CR/NON-PD,NON-CR/NON-PD,INVESTIGATOR,NA,NA,2014-08-12,6,2014-07-01,CBOR,Best Confirmed Overall Response by Investigator,Tumor Response,Investigator,RECIST 1.1,2014-08-12,NA,WEEK 6,NON-CR/NON-PD,4,Y,Y,5,1034,2014-07-01,2014-12-30,2014-07-01,2014-12-30,NA,2014-12-30T09:50,NA,NA,701,77,YEARS,F,WHITE,NOT HISPANIC OR LATINO,Xan_Hi,Xanomeline High Dose,Xan_Hi,Xanomeline High Dose,USA,2014-06-24,-7,Xanomeline High Dose,Xanomeline High Dose,2014-07-01T00:00:00Z,H,2014-12-30T23:59:59Z,H,2014-07-01,2014-12-30,183,NA,2014-12-30,COMPLETED,NA,NA,NA,NA,NA,2014-12-30,Y,White,>64,"NA",NA,NA,NA,NA
RS,CDISCPILOT01,01-701-1034,3,WEEK 6,OVRLRESP,Overall Response,NON-CR/NON-PD,NON-CR/NON-PD,INVESTIGATOR,NA,NA,2014-08-12,6,2014-07-01,CCB,Confirmed Clinical Benefit by Investigator,Tumor Response,Investigator,RECIST 1.1,2014-08-12,NA,WEEK 6,Y,1,Y,Y,6,1034,2014-07-01,2014-12-30,2014-07-01,2014-12-30,NA,2014-12-30T09:50,NA,NA,701,77,YEARS,F,WHITE,NOT HISPANIC OR LATINO,Xan_Hi,Xanomeline High Dose,Xan_Hi,Xanomeline High Dose,USA,2014-06-24,-7,Xanomeline High Dose,Xanomeline High Dose,2014-07-01T00:00:00Z,H,2014-12-30T23:59:59Z,H,2014-07-01,2014-12-30,183,NA,2014-12-30,COMPLETED,NA,NA,NA,NA,NA,2014-12-30,Y,White,>64,"NA",NA,NA,NA,NA
NA,CDISCPILOT01,01-701-1034,NA,NA,NA,NA,NA,NA,NA,NA,NA,NA,NA,2014-07-01,CRSP,Confirmed Response by Investigator,Tumor Response,Investigator,RECIST 1.1,NA,NA,NA,N,0,Y,NA,7,1034,2014-07-01,2014-12-30,2014-07-01,2014-12-30,NA,2014-12-30T09:50,NA,NA,701,77,YEARS,F,WHITE,NOT HISPANIC OR LATINO,Xan_Hi,Xanomeline High Dose,Xan_Hi,Xanomeline High Dose,USA,2014-06-24,-7,Xanomeline High Dose,Xanomeline High Dose,2014-07-01T00:00:00Z,H,2014-12-30T23:59:59Z,H,2014-07-01,2014-12-30,183,NA,2014-12-30,COMPLETED,NA,NA,NA,NA,NA,2014-12-30,Y,White,>64,"NA",NA,NA,NA,NA
NA,CDISCPILOT01,01-701-1034,NA,NA,NA,NA,NA,NA,NA,NA,NA,NA,NA,2014-07-01,DEATH,Death,Reference Event,NA,NA,NA,NA,NA,N,0,Y,NA,8,1034,2014-07-01,2014-12-30,2014-07-01,2014-12-30,NA,2014-12-30T09:50,NA,NA,701,77,YEARS,F,WHITE,NOT HISPANIC OR LATINO,Xan_Hi,Xanomeline High Dose,Xan_Hi,Xanomeline High Dose,USA,2014-06-24,-7,Xanomeline High Dose,Xanomeline High Dose,2014-07-01T00:00:00Z,H,2014-12-30T23:59:59Z,H,2014-07-01,2014-12-30,183,NA,2014-12-30,COMPLETED,NA,NA,NA,NA,NA,2014-12-30,Y,White,>64,"NA",NA,NA,NA,NA
RS,CDISCPILOT01,01-701-1034,3,WEEK 6,OVRLRESP,Overall Response,NON-CR/NON-PD,NON-CR/NON-PD,INVESTIGATOR,NA,NA,2014-08-12,6,2014-07-01,LSTA,Last Disease Assessment by Investigator,Tumor Response,Investigator,RECIST 1.1,2014-08-12,NA,WEEK 6,NON-CR/NON-PD,4,Y,Y,9,1034,2014-07-01,2014-12-30,2014-07-01,2014-12-30,NA,2014-12-30T09:50,NA,NA,701,77,YEARS,F,WHITE,NOT HISPANIC OR LATINO,Xan_Hi,Xanomeline High Dose,Xan_Hi,Xanomeline High Dose,USA,2014-06-24,-7,Xanomeline High Dose,Xanomeline High Dose,2014-07-01T00:00:00Z,H,2014-12-30T23:59:59Z,H,2014-07-01,2014-12-30,183,NA,2014-12-30,COMPLETED,NA,NA,NA,NA,NA,2014-12-30,Y,White,>64,"NA",NA,NA,NA,NA
NA,CDISCPILOT01,01-701-1034,NA,NA,NA,NA,NA,NA,NA,NA,NA,NA,NA,2014-07-01,MDIS,Measurable Disease at Baseline by Investigator,NA,Investigator,RECIST 1.1,NA,NA,NA,N,0,Y,NA,10,1034,2014-07-01,2014-12-30,2014-07-01,2014-12-30,NA,2014-12-30T09:50,NA,NA,701,77,YEARS,F,WHITE,NOT HISPANIC OR LATINO,Xan_Hi,Xanomeline High Dose,Xan_Hi,Xanomeline High Dose,USA,2014-06-24,-7,Xanomeline High Dose,Xanomeline High Dose,2014-07-01T00:00:00Z,H,2014-12-30T23:59:59Z,H,2014-07-01,2014-12-30,183,NA,2014-12-30,COMPLETED,NA,NA,NA,NA,NA,2014-12-30,Y,White,>64,"NA",NA,NA,NA,NA
RS,CDISCPILOT01,01-701-1034,2,WEEK 3,OVRLRESP,Overall Response,NON-CR/NON-PD,NON-CR/NON-PD,INVESTIGATOR,NA,NA,2014-07-22,3,2014-07-01,OVR,Overall Response by Investigator,Tumor Response,Investigator,RECIST 1.1,2014-07-22,NA,WEEK 3,NON-CR/NON-PD,4,Y,Y,11,1034,2014-07-01,2014-12-30,2014-07-01,2014-12-30,NA,2014-12-30T09:50,NA,NA,701,77,YEARS,F,WHITE,NOT HISPANIC OR LATINO,Xan_Hi,Xanomeline High Dose,Xan_Hi,Xanomeline High Dose,USA,2014-06-24,-7,Xanomeline High Dose,Xanomeline High Dose,2014-07-01T00:00:00Z,H,2014-12-30T23:59:59Z,H,2014-07-01,2014-12-30,183,NA,2014-12-30,COMPLETED,NA,NA,NA,NA,NA,2014-12-30,Y,White,>64,"NA",NA,NA,NA,NA
RS,CDISCPILOT01,01-701-1034,3,WEEK 6,OVRLRESP,Overall Response,NON-CR/NON-PD,NON-CR/NON-PD,INVESTIGATOR,NA,NA,2014-08-12,6,2014-07-01,OVR,Overall Response by Investigator,Tumor Response,Investigator,RECIST 1.1,2014-08-12,NA,WEEK 6,NON-CR/NON-PD,4,Y,Y,12,1034,2014-07-01,2014-12-30,2014-07-01,2014-12-30,NA,2014-12-30T09:50,NA,NA,701,77,YEARS,F,WHITE,NOT HISPANIC OR LATINO,Xan_Hi,Xanomeline High Dose,Xan_Hi,Xanomeline High Dose,USA,2014-06-24,-7,Xanomeline High Dose,Xanomeline High Dose,2014-07-01T00:00:00Z,H,2014-12-30T23:59:59Z,H,2014-07-01,2014-12-30,183,NA,2014-12-30,COMPLETED,NA,NA,NA,NA,NA,2014-12-30,Y,White,>64,"NA",NA,NA,NA,NA
NA,CDISCPILOT01,01-701-1034,NA,NA,NA,NA,NA,NA,NA,NA,NA,NA,NA,2014-07-01,PD,Disease Progression by Investigator,Tumor Response,Investigator,RECIST 1.1,NA,NA,NA,N,0,Y,NA,13,1034,2014-07-01,2014-12-30,2014-07-01,2014-12-30,NA,2014-12-30T09:50,NA,NA,701,77,YEARS,F,WHITE,NOT HISPANIC OR LATINO,Xan_Hi,Xanomeline High Dose,Xan_Hi,Xanomeline High Dose,USA,2014-06-24,-7,Xanomeline High Dose,Xanomeline High Dose,2014-07-01T00:00:00Z,H,2014-12-30T23:59:59Z,H,2014-07-01,2014-12-30,183,NA,2014-12-30,COMPLETED,NA,NA,NA,NA,NA,2014-12-30,Y,White,>64,"NA",NA,NA,NA,NA
NA,CDISCPILOT01,01-701-1034,NA,NA,NA,NA,NA,NA,NA,NA,NA,NA,NA,2014-07-01,RSP,Response by Investigator (confirmation not required),Tumor Response,Investigator,RECIST 1.1,NA,NA,NA,N,0,Y,NA,14,1034,2014-07-01,2014-12-30,2014-07-01,2014-12-30,NA,2014-12-30T09:50,NA,NA,701,77,YEARS,F,WHITE,NOT HISPANIC OR LATINO,Xan_Hi,Xanomeline High Dose,Xan_Hi,Xanomeline High Dose,USA,2014-06-24,-7,Xanomeline High Dose,Xanomeline High Dose,2014-07-01T00:00:00Z,H,2014-12-30T23:59:59Z,H,2014-07-01,2014-12-30,183,NA,2014-12-30,COMPLETED,NA,NA,NA,NA,NA,2014-12-30,Y,White,>64,"NA",NA,NA,NA,NA
NA,CDISCPILOT01,01-701-1047,NA,NA,NA,NA,NA,NA,NA,NA,NA,NA,NA,2013-02-12,BCP,Best Overall Response of CR/PR by Investigator (confirmation not required),Tumor Response,Investigator,RECIST 1.1,NA,NA,NA,N,0,Y,NA,1,1047,2013-02-12,2013-03-29,2013-02-12,2013-03-09,NA,2013-07-28,NA,NA,701,85,YEARS,F,WHITE,NOT HISPANIC OR LATINO,Pbo,Placebo,Pbo,Placebo,USA,2013-01-22,-21,Placebo,Placebo,2013-02-12T00:00:00Z,H,2013-03-09T23:59:59Z,H,2013-02-12,2013-03-09,26,NA,2013-03-29,DISCONTINUED,2013-07-28,NA,NA,NA,NA,2013-04-07,Y,White,>64,"NA",NA,NA,NA,NA
NA,CDISCPILOT01,01-701-1047,NA,NA,NA,NA,NA,NA,NA,NA,NA,NA,NA,2013-02-12,BOR,Best Overall Response by Investigator (confirmation not required),Tumor Response,Investigator,RECIST 1.1,NA,NA,NA,MISSING,7,Y,NA,2,1047,2013-02-12,2013-03-29,2013-02-12,2013-03-09,NA,2013-07-28,NA,NA,701,85,YEARS,F,WHITE,NOT HISPANIC OR LATINO,Pbo,Placebo,Pbo,Placebo,USA,2013-01-22,-21,Placebo,Placebo,2013-02-12T00:00:00Z,H,2013-03-09T23:59:59Z,H,2013-02-12,2013-03-09,26,NA,2013-03-29,DISCONTINUED,2013-07-28,NA,NA,NA,NA,2013-04-07,Y,White,>64,"NA",NA,NA,NA,NA
NA,CDISCPILOT01,01-701-1047,NA,NA,NA,NA,NA,NA,NA,NA,NA,NA,NA,2013-02-12,CB,Clinical Benefit by Investigator (confirmation for response not required),Tumor Response,Investigator,RECIST 1.1,NA,NA,NA,N,0,Y,NA,3,1047,2013-02-12,2013-03-29,2013-02-12,2013-03-09,NA,2013-07-28,NA,NA,701,85,YEARS,F,WHITE,NOT HISPANIC OR LATINO,Pbo,Placebo,Pbo,Placebo,USA,2013-01-22,-21,Placebo,Placebo,2013-02-12T00:00:00Z,H,2013-03-09T23:59:59Z,H,2013-02-12,2013-03-09,26,NA,2013-03-29,DISCONTINUED,2013-07-28,NA,NA,NA,NA,2013-04-07,Y,White,>64,"NA",NA,NA,NA,NA
NA,CDISCPILOT01,01-701-1047,NA,NA,NA,NA,NA,NA,NA,NA,NA,NA,NA,2013-02-12,CBCP,Best Confirmed Overall Response of CR/PR by Investigator,Tumor Response,Investigator,RECIST 1.1,NA,NA,NA,N,0,Y,NA,4,1047,2013-02-12,2013-03-29,2013-02-12,2013-03-09,NA,2013-07-28,NA,NA,701,85,YEARS,F,WHITE,NOT HISPANIC OR LATINO,Pbo,Placebo,Pbo,Placebo,USA,2013-01-22,-21,Placebo,Placebo,2013-02-12T00:00:00Z,H,2013-03-09T23:59:59Z,H,2013-02-12,2013-03-09,26,NA,2013-03-29,DISCONTINUED,2013-07-28,NA,NA,NA,NA,2013-04-07,Y,White,>64,"NA",NA,NA,NA,NA
NA,CDISCPILOT01,01-701-1047,NA,NA,NA,NA,NA,NA,NA,NA,NA,NA,NA,2013-02-12,CBOR,Best Confirmed Overall Response by Investigator,Tumor Response,Investigator,RECIST 1.1,NA,NA,NA,MISSING,7,Y,NA,5,1047,2013-02-12,2013-03-29,2013-02-12,2013-03-09,NA,2013-07-28,NA,NA,701,85,YEARS,F,WHITE,NOT HISPANIC OR LATINO,Pbo,Placebo,Pbo,Placebo,USA,2013-01-22,-21,Placebo,Placebo,2013-02-12T00:00:00Z,H,2013-03-09T23:59:59Z,H,2013-02-12,2013-03-09,26,NA,2013-03-29,DISCONTINUED,2013-07-28,NA,NA,NA,NA,2013-04-07,Y,White,>64,"NA",NA,NA,NA,NA
NA,CDISCPILOT01,01-701-1047,NA,NA,NA,NA,NA,NA,NA,NA,NA,NA,NA,2013-02-12,CCB,Confirmed Clinical Benefit by Investigator,Tumor Response,Investigator,RECIST 1.1,NA,NA,NA,N,0,Y,NA,6,1047,2013-02-12,2013-03-29,2013-02-12,2013-03-09,NA,2013-07-28,NA,NA,701,85,YEARS,F,WHITE,NOT HISPANIC OR LATINO,Pbo,Placebo,Pbo,Placebo,USA,2013-01-22,-21,Placebo,Placebo,2013-02-12T00:00:00Z,H,2013-03-09T23:59:59Z,H,2013-02-12,2013-03-09,26,NA,2013-03-29,DISCONTINUED,2013-07-28,NA,NA,NA,NA,2013-04-07,Y,White,>64,"NA",NA,NA,NA,NA
NA,CDISCPILOT01,01-701-1047,NA,NA,NA,NA,NA,NA,NA,NA,NA,NA,NA,2013-02-12,CRSP,Confirmed Response by Investigator,Tumor Response,Investigator,RECIST 1.1,NA,NA,NA,N,0,Y,NA,7,1047,2013-02-12,2013-03-29,2013-02-12,2013-03-09,NA,2013-07-28,NA,NA,701,85,YEARS,F,WHITE,NOT HISPANIC OR LATINO,Pbo,Placebo,Pbo,Placebo,USA,2013-01-22,-21,Placebo,Placebo,2013-02-12T00:00:00Z,H,2013-03-09T23:59:59Z,H,2013-02-12,2013-03-09,26,NA,2013-03-29,DISCONTINUED,2013-07-28,NA,NA,NA,NA,2013-04-07,Y,White,>64,"NA",NA,NA,NA,NA
NA,CDISCPILOT01,01-701-1047,NA,NA,NA,NA,NA,NA,NA,NA,NA,NA,NA,2013-02-12,DEATH,Death,Reference Event,NA,NA,NA,NA,NA,N,0,Y,NA,8,1047,2013-02-12,2013-03-29,2013-02-12,2013-03-09,NA,2013-07-28,NA,NA,701,85,YEARS,F,WHITE,NOT HISPANIC OR LATINO,Pbo,Placebo,Pbo,Placebo,USA,2013-01-22,-21,Placebo,Placebo,2013-02-12T00:00:00Z,H,2013-03-09T23:59:59Z,H,2013-02-12,2013-03-09,26,NA,2013-03-29,DISCONTINUED,2013-07-28,NA,NA,NA,NA,2013-04-07,Y,White,>64,"NA",NA,NA,NA,NA
NA,CDISCPILOT01,01-701-1047,NA,NA,NA,NA,NA,NA,NA,NA,NA,NA,NA,2013-02-12,LSTA,Last Disease Assessment by Investigator,Tumor Response,Investigator,RECIST 1.1,NA,NA,NA,NA,NA,Y,NA,9,1047,2013-02-12,2013-03-29,2013-02-12,2013-03-09,NA,2013-07-28,NA,NA,701,85,YEARS,F,WHITE,NOT HISPANIC OR LATINO,Pbo,Placebo,Pbo,Placebo,USA,2013-01-22,-21,Placebo,Placebo,2013-02-12T00:00:00Z,H,2013-03-09T23:59:59Z,H,2013-02-12,2013-03-09,26,NA,2013-03-29,DISCONTINUED,2013-07-28,NA,NA,NA,NA,2013-04-07,Y,White,>64,"NA",NA,NA,NA,NA
NA,CDISCPILOT01,01-701-1047,NA,NA,NA,NA,NA,NA,NA,NA,NA,NA,NA,2013-02-12,MDIS,Measurable Disease at Baseline by Investigator,NA,Investigator,RECIST 1.1,NA,NA,NA,N,0,Y,NA,10,1047,2013-02-12,2013-03-29,2013-02-12,2013-03-09,NA,2013-07-28,NA,NA,701,85,YEARS,F,WHITE,NOT HISPANIC OR LATINO,Pbo,Placebo,Pbo,Placebo,USA,2013-01-22,-21,Placebo,Placebo,2013-02-12T00:00:00Z,H,2013-03-09T23:59:59Z,H,2013-02-12,2013-03-09,26,NA,2013-03-29,DISCONTINUED,2013-07-28,NA,NA,NA,NA,2013-04-07,Y,White,>64,"NA",NA,NA,NA,NA
NA,CDISCPILOT01,01-701-1047,NA,NA,NA,NA,NA,NA,NA,NA,NA,NA,NA,2013-02-12,PD,Disease Progression by Investigator,Tumor Response,Investigator,RECIST 1.1,NA,NA,NA,N,0,Y,NA,11,1047,2013-02-12,2013-03-29,2013-02-12,2013-03-09,NA,2013-07-28,NA,NA,701,85,YEARS,F,WHITE,NOT HISPANIC OR LATINO,Pbo,Placebo,Pbo,Placebo,USA,2013-01-22,-21,Placebo,Placebo,2013-02-12T00:00:00Z,H,2013-03-09T23:59:59Z,H,2013-02-12,2013-03-09,26,NA,2013-03-29,DISCONTINUED,2013-07-28,NA,NA,NA,NA,2013-04-07,Y,White,>64,"NA",NA,NA,NA,NA
NA,CDISCPILOT01,01-701-1047,NA,NA,NA,NA,NA,NA,NA,NA,NA,NA,NA,2013-02-12,RSP,Response by Investigator (confirmation not required),Tumor Response,Investigator,RECIST 1.1,NA,NA,NA,N,0,Y,NA,12,1047,2013-02-12,2013-03-29,2013-02-12,2013-03-09,NA,2013-07-28,NA,NA,701,85,YEARS,F,WHITE,NOT HISPANIC OR LATINO,Pbo,Placebo,Pbo,Placebo,USA,2013-01-22,-21,Placebo,Placebo,2013-02-12T00:00:00Z,H,2013-03-09T23:59:59Z,H,2013-02-12,2013-03-09,26,NA,2013-03-29,DISCONTINUED,2013-07-28,NA,NA,NA,NA,2013-04-07,Y,White,>64,"NA",NA,NA,NA,NA
NA,CDISCPILOT01,01-701-1057,NA,NA,NA,NA,NA,NA,NA,NA,NA,NA,NA,NA,BCP,Best Overall Response of CR/PR by Investigator (confirmation not required),Tumor Response,Investigator,RECIST 1.1,NA,NA,NA,N,0,Y,NA,1,1057,NA,NA,NA,NA,NA,2013-12-27,NA,NA,701,59,YEARS,F,WHITE,HISPANIC OR LATINO,Scrnfail,Screen Failure,Scrnfail,Screen Failure,USA,2013-12-20,NA,Screen Failure,Screen Failure,NA,NA,NA,NA,NA,NA,NA,2013-12-20,NA,NA,NA,NA,NA,NA,NA,NA,NA,White,18-64,"NA",NA,NA,NA,NA
NA,CDISCPILOT01,01-701-1057,NA,NA,NA,NA,NA,NA,NA,NA,NA,NA,NA,NA,BOR,Best Overall Response by Investigator (confirmation not required),Tumor Response,Investigator,RECIST 1.1,NA,NA,NA,MISSING,7,Y,NA,2,1057,NA,NA,NA,NA,NA,2013-12-27,NA,NA,701,59,YEARS,F,WHITE,HISPANIC OR LATINO,Scrnfail,Screen Failure,Scrnfail,Screen Failure,USA,2013-12-20,NA,Screen Failure,Screen Failure,NA,NA,NA,NA,NA,NA,NA,2013-12-20,NA,NA,NA,NA,NA,NA,NA,NA,NA,White,18-64,"NA",NA,NA,NA,NA
NA,CDISCPILOT01,01-701-1057,NA,NA,NA,NA,NA,NA,NA,NA,NA,NA,NA,NA,CB,Clinical Benefit by Investigator (confirmation for response not required),Tumor Response,Investigator,RECIST 1.1,NA,NA,NA,N,0,Y,NA,3,1057,NA,NA,NA,NA,NA,2013-12-27,NA,NA,701,59,YEARS,F,WHITE,HISPANIC OR LATINO,Scrnfail,Screen Failure,Scrnfail,Screen Failure,USA,2013-12-20,NA,Screen Failure,Screen Failure,NA,NA,NA,NA,NA,NA,NA,2013-12-20,NA,NA,NA,NA,NA,NA,NA,NA,NA,White,18-64,"NA",NA,NA,NA,NA
NA,CDISCPILOT01,01-701-1057,NA,NA,NA,NA,NA,NA,NA,NA,NA,NA,NA,NA,CBCP,Best Confirmed Overall Response of CR/PR by Investigator,Tumor Response,Investigator,RECIST 1.1,NA,NA,NA,N,0,Y,NA,4,1057,NA,NA,NA,NA,NA,2013-12-27,NA,NA,701,59,YEARS,F,WHITE,HISPANIC OR LATINO,Scrnfail,Screen Failure,Scrnfail,Screen Failure,USA,2013-12-20,NA,Screen Failure,Screen Failure,NA,NA,NA,NA,NA,NA,NA,2013-12-20,NA,NA,NA,NA,NA,NA,NA,NA,NA,White,18-64,"NA",NA,NA,NA,NA
NA,CDISCPILOT01,01-701-1057,NA,NA,NA,NA,NA,NA,NA,NA,NA,NA,NA,NA,CBOR,Best Confirmed Overall Response by Investigator,Tumor Response,Investigator,RECIST 1.1,NA,NA,NA,MISSING,7,Y,NA,5,1057,NA,NA,NA,NA,NA,2013-12-27,NA,NA,701,59,YEARS,F,WHITE,HISPANIC OR LATINO,Scrnfail,Screen Failure,Scrnfail,Screen Failure,USA,2013-12-20,NA,Screen Failure,Screen Failure,NA,NA,NA,NA,NA,NA,NA,2013-12-20,NA,NA,NA,NA,NA,NA,NA,NA,NA,White,18-64,"NA",NA,NA,NA,NA
NA,CDISCPILOT01,01-701-1057,NA,NA,NA,NA,NA,NA,NA,NA,NA,NA,NA,NA,CCB,Confirmed Clinical Benefit by Investigator,Tumor Response,Investigator,RECIST 1.1,NA,NA,NA,N,0,Y,NA,6,1057,NA,NA,NA,NA,NA,2013-12-27,NA,NA,701,59,YEARS,F,WHITE,HISPANIC OR LATINO,Scrnfail,Screen Failure,Scrnfail,Screen Failure,USA,2013-12-20,NA,Screen Failure,Screen Failure,NA,NA,NA,NA,NA,NA,NA,2013-12-20,NA,NA,NA,NA,NA,NA,NA,NA,NA,White,18-64,"NA",NA,NA,NA,NA
NA,CDISCPILOT01,01-701-1057,NA,NA,NA,NA,NA,NA,NA,NA,NA,NA,NA,NA,CRSP,Confirmed Response by Investigator,Tumor Response,Investigator,RECIST 1.1,NA,NA,NA,N,0,Y,NA,7,1057,NA,NA,NA,NA,NA,2013-12-27,NA,NA,701,59,YEARS,F,WHITE,HISPANIC OR LATINO,Scrnfail,Screen Failure,Scrnfail,Screen Failure,USA,2013-12-20,NA,Screen Failure,Screen Failure,NA,NA,NA,NA,NA,NA,NA,2013-12-20,NA,NA,NA,NA,NA,NA,NA,NA,NA,White,18-64,"NA",NA,NA,NA,NA
NA,CDISCPILOT01,01-701-1057,NA,NA,NA,NA,NA,NA,NA,NA,NA,NA,NA,NA,DEATH,Death,Reference Event,NA,NA,NA,NA,NA,N,0,Y,NA,8,1057,NA,NA,NA,NA,NA,2013-12-27,NA,NA,701,59,YEARS,F,WHITE,HISPANIC OR LATINO,Scrnfail,Screen Failure,Scrnfail,Screen Failure,USA,2013-12-20,NA,Screen Failure,Screen Failure,NA,NA,NA,NA,NA,NA,NA,2013-12-20,NA,NA,NA,NA,NA,NA,NA,NA,NA,White,18-64,"NA",NA,NA,NA,NA
NA,CDISCPILOT01,01-701-1057,NA,NA,NA,NA,NA,NA,NA,NA,NA,NA,NA,NA,LSTA,Last Disease Assessment by Investigator,Tumor Response,Investigator,RECIST 1.1,NA,NA,NA,NA,NA,Y,NA,9,1057,NA,NA,NA,NA,NA,2013-12-27,NA,NA,701,59,YEARS,F,WHITE,HISPANIC OR LATINO,Scrnfail,Screen Failure,Scrnfail,Screen Failure,USA,2013-12-20,NA,Screen Failure,Screen Failure,NA,NA,NA,NA,NA,NA,NA,2013-12-20,NA,NA,NA,NA,NA,NA,NA,NA,NA,White,18-64,"NA",NA,NA,NA,NA
NA,CDISCPILOT01,01-701-1057,NA,NA,NA,NA,NA,NA,NA,NA,NA,NA,NA,NA,MDIS,Measurable Disease at Baseline by Investigator,NA,Investigator,RECIST 1.1,NA,NA,NA,N,0,Y,NA,10,1057,NA,NA,NA,NA,NA,2013-12-27,NA,NA,701,59,YEARS,F,WHITE,HISPANIC OR LATINO,Scrnfail,Screen Failure,Scrnfail,Screen Failure,USA,2013-12-20,NA,Screen Failure,Screen Failure,NA,NA,NA,NA,NA,NA,NA,2013-12-20,NA,NA,NA,NA,NA,NA,NA,NA,NA,White,18-64,"NA",NA,NA,NA,NA
NA,CDISCPILOT01,01-701-1057,NA,NA,NA,NA,NA,NA,NA,NA,NA,NA,NA,NA,PD,Disease Progression by Investigator,Tumor Response,Investigator,RECIST 1.1,NA,NA,NA,N,0,Y,NA,11,1057,NA,NA,NA,NA,NA,2013-12-27,NA,NA,701,59,YEARS,F,WHITE,HISPANIC OR LATINO,Scrnfail,Screen Failure,Scrnfail,Screen Failure,USA,2013-12-20,NA,Screen Failure,Screen Failure,NA,NA,NA,NA,NA,NA,NA,2013-12-20,NA,NA,NA,NA,NA,NA,NA,NA,NA,White,18-64,"NA",NA,NA,NA,NA
NA,CDISCPILOT01,01-701-1057,NA,NA,NA,NA,NA,NA,NA,NA,NA,NA,NA,NA,RSP,Response by Investigator (confirmation not required),Tumor Response,Investigator,RECIST 1.1,NA,NA,NA,N,0,Y,NA,12,1057,NA,NA,NA,NA,NA,2013-12-27,NA,NA,701,59,YEARS,F,WHITE,HISPANIC OR LATINO,Scrnfail,Screen Failure,Scrnfail,Screen Failure,USA,2013-12-20,NA,Screen Failure,Screen Failure,NA,NA,NA,NA,NA,NA,NA,2013-12-20,NA,NA,NA,NA,NA,NA,NA,NA,NA,White,18-64,"NA",NA,NA,NA,NA
NA,CDISCPILOT01,01-701-1097,NA,NA,NA,NA,NA,NA,NA,NA,NA,NA,NA,2014-01-01,BCP,Best Overall Response of CR/PR by Investigator (confirmation not required),Tumor Response,Investigator,RECIST 1.1,NA,NA,NA,N,0,Y,NA,1,1097,2014-01-01,2014-07-09,2014-01-01,2014-07-09,NA,2014-07-09T09:39,NA,NA,701,68,YEARS,M,WHITE,NOT HISPANIC OR LATINO,Xan_Lo,Xanomeline Low Dose,Xan_Lo,Xanomeline Low Dose,USA,2013-12-23,-9,Xanomeline Low Dose,Xanomeline Low Dose,2014-01-01T00:00:00Z,H,2014-07-09T23:59:59Z,H,2014-01-01,2014-07-09,190,NA,2014-07-09,COMPLETED,NA,NA,NA,NA,NA,2014-07-09,Y,White,>64,"NA",NA,NA,NA,NA
RS,CDISCPILOT01,01-701-1097,2,WEEK 3,OVRLRESP,Overall Response,NON-CR/NON-PD,NON-CR/NON-PD,INVESTIGATOR,NA,NA,2014-01-22,3,2014-01-01,BOR,Best Overall Response by Investigator (confirmation not required),Tumor Response,Investigator,RECIST 1.1,2014-01-22,NA,WEEK 3,NE,6,Y,Y,2,1097,2014-01-01,2014-07-09,2014-01-01,2014-07-09,NA,2014-07-09T09:39,NA,NA,701,68,YEARS,M,WHITE,NOT HISPANIC OR LATINO,Xan_Lo,Xanomeline Low Dose,Xan_Lo,Xanomeline Low Dose,USA,2013-12-23,-9,Xanomeline Low Dose,Xanomeline Low Dose,2014-01-01T00:00:00Z,H,2014-07-09T23:59:59Z,H,2014-01-01,2014-07-09,190,NA,2014-07-09,COMPLETED,NA,NA,NA,NA,NA,2014-07-09,Y,White,>64,"NA",NA,NA,NA,NA
NA,CDISCPILOT01,01-701-1097,NA,NA,NA,NA,NA,NA,NA,NA,NA,NA,NA,2014-01-01,CB,Clinical Benefit by Investigator (confirmation for response not required),Tumor Response,Investigator,RECIST 1.1,NA,NA,NA,N,0,Y,NA,3,1097,2014-01-01,2014-07-09,2014-01-01,2014-07-09,NA,2014-07-09T09:39,NA,NA,701,68,YEARS,M,WHITE,NOT HISPANIC OR LATINO,Xan_Lo,Xanomeline Low Dose,Xan_Lo,Xanomeline Low Dose,USA,2013-12-23,-9,Xanomeline Low Dose,Xanomeline Low Dose,2014-01-01T00:00:00Z,H,2014-07-09T23:59:59Z,H,2014-01-01,2014-07-09,190,NA,2014-07-09,COMPLETED,NA,NA,NA,NA,NA,2014-07-09,Y,White,>64,"NA",NA,NA,NA,NA
NA,CDISCPILOT01,01-701-1097,NA,NA,NA,NA,NA,NA,NA,NA,NA,NA,NA,2014-01-01,CBCP,Best Confirmed Overall Response of CR/PR by Investigator,Tumor Response,Investigator,RECIST 1.1,NA,NA,NA,N,0,Y,NA,4,1097,2014-01-01,2014-07-09,2014-01-01,2014-07-09,NA,2014-07-09T09:39,NA,NA,701,68,YEARS,M,WHITE,NOT HISPANIC OR LATINO,Xan_Lo,Xanomeline Low Dose,Xan_Lo,Xanomeline Low Dose,USA,2013-12-23,-9,Xanomeline Low Dose,Xanomeline Low Dose,2014-01-01T00:00:00Z,H,2014-07-09T23:59:59Z,H,2014-01-01,2014-07-09,190,NA,2014-07-09,COMPLETED,NA,NA,NA,NA,NA,2014-07-09,Y,White,>64,"NA",NA,NA,NA,NA
RS,CDISCPILOT01,01-701-1097,2,WEEK 3,OVRLRESP,Overall Response,NON-CR/NON-PD,NON-CR/NON-PD,INVESTIGATOR,NA,NA,2014-01-22,3,2014-01-01,CBOR,Best Confirmed Overall Response by Investigator,Tumor Response,Investigator,RECIST 1.1,2014-01-22,NA,WEEK 3,NE,6,Y,Y,5,1097,2014-01-01,2014-07-09,2014-01-01,2014-07-09,NA,2014-07-09T09:39,NA,NA,701,68,YEARS,M,WHITE,NOT HISPANIC OR LATINO,Xan_Lo,Xanomeline Low Dose,Xan_Lo,Xanomeline Low Dose,USA,2013-12-23,-9,Xanomeline Low Dose,Xanomeline Low Dose,2014-01-01T00:00:00Z,H,2014-07-09T23:59:59Z,H,2014-01-01,2014-07-09,190,NA,2014-07-09,COMPLETED,NA,NA,NA,NA,NA,2014-07-09,Y,White,>64,"NA",NA,NA,NA,NA
NA,CDISCPILOT01,01-701-1097,NA,NA,NA,NA,NA,NA,NA,NA,NA,NA,NA,2014-01-01,CCB,Confirmed Clinical Benefit by Investigator,Tumor Response,Investigator,RECIST 1.1,NA,NA,NA,N,0,Y,NA,6,1097,2014-01-01,2014-07-09,2014-01-01,2014-07-09,NA,2014-07-09T09:39,NA,NA,701,68,YEARS,M,WHITE,NOT HISPANIC OR LATINO,Xan_Lo,Xanomeline Low Dose,Xan_Lo,Xanomeline Low Dose,USA,2013-12-23,-9,Xanomeline Low Dose,Xanomeline Low Dose,2014-01-01T00:00:00Z,H,2014-07-09T23:59:59Z,H,2014-01-01,2014-07-09,190,NA,2014-07-09,COMPLETED,NA,NA,NA,NA,NA,2014-07-09,Y,White,>64,"NA",NA,NA,NA,NA
NA,CDISCPILOT01,01-701-1097,NA,NA,NA,NA,NA,NA,NA,NA,NA,NA,NA,2014-01-01,CRSP,Confirmed Response by Investigator,Tumor Response,Investigator,RECIST 1.1,NA,NA,NA,N,0,Y,NA,7,1097,2014-01-01,2014-07-09,2014-01-01,2014-07-09,NA,2014-07-09T09:39,NA,NA,701,68,YEARS,M,WHITE,NOT HISPANIC OR LATINO,Xan_Lo,Xanomeline Low Dose,Xan_Lo,Xanomeline Low Dose,USA,2013-12-23,-9,Xanomeline Low Dose,Xanomeline Low Dose,2014-01-01T00:00:00Z,H,2014-07-09T23:59:59Z,H,2014-01-01,2014-07-09,190,NA,2014-07-09,COMPLETED,NA,NA,NA,NA,NA,2014-07-09,Y,White,>64,"NA",NA,NA,NA,NA
NA,CDISCPILOT01,01-701-1097,NA,NA,NA,NA,NA,NA,NA,NA,NA,NA,NA,2014-01-01,DEATH,Death,Reference Event,NA,NA,NA,NA,NA,N,0,Y,NA,8,1097,2014-01-01,2014-07-09,2014-01-01,2014-07-09,NA,2014-07-09T09:39,NA,NA,701,68,YEARS,M,WHITE,NOT HISPANIC OR LATINO,Xan_Lo,Xanomeline Low Dose,Xan_Lo,Xanomeline Low Dose,USA,2013-12-23,-9,Xanomeline Low Dose,Xanomeline Low Dose,2014-01-01T00:00:00Z,H,2014-07-09T23:59:59Z,H,2014-01-01,2014-07-09,190,NA,2014-07-09,COMPLETED,NA,NA,NA,NA,NA,2014-07-09,Y,White,>64,"NA",NA,NA,NA,NA
RS,CDISCPILOT01,01-701-1097,2,WEEK 3,OVRLRESP,Overall Response,NON-CR/NON-PD,NON-CR/NON-PD,INVESTIGATOR,NA,NA,2014-01-22,3,2014-01-01,LSTA,Last Disease Assessment by Investigator,Tumor Response,Investigator,RECIST 1.1,2014-01-22,NA,WEEK 3,NON-CR/NON-PD,4,Y,Y,9,1097,2014-01-01,2014-07-09,2014-01-01,2014-07-09,NA,2014-07-09T09:39,NA,NA,701,68,YEARS,M,WHITE,NOT HISPANIC OR LATINO,Xan_Lo,Xanomeline Low Dose,Xan_Lo,Xanomeline Low Dose,USA,2013-12-23,-9,Xanomeline Low Dose,Xanomeline Low Dose,2014-01-01T00:00:00Z,H,2014-07-09T23:59:59Z,H,2014-01-01,2014-07-09,190,NA,2014-07-09,COMPLETED,NA,NA,NA,NA,NA,2014-07-09,Y,White,>64,"NA",NA,NA,NA,NA
NA,CDISCPILOT01,01-701-1097,NA,NA,NA,NA,NA,NA,NA,NA,NA,NA,NA,2014-01-01,MDIS,Measurable Disease at Baseline by Investigator,NA,Investigator,RECIST 1.1,NA,NA,NA,N,0,Y,NA,10,1097,2014-01-01,2014-07-09,2014-01-01,2014-07-09,NA,2014-07-09T09:39,NA,NA,701,68,YEARS,M,WHITE,NOT HISPANIC OR LATINO,Xan_Lo,Xanomeline Low Dose,Xan_Lo,Xanomeline Low Dose,USA,2013-12-23,-9,Xanomeline Low Dose,Xanomeline Low Dose,2014-01-01T00:00:00Z,H,2014-07-09T23:59:59Z,H,2014-01-01,2014-07-09,190,NA,2014-07-09,COMPLETED,NA,NA,NA,NA,NA,2014-07-09,Y,White,>64,"NA",NA,NA,NA,NA
RS,CDISCPILOT01,01-701-1097,2,WEEK 3,OVRLRESP,Overall Response,NON-CR/NON-PD,NON-CR/NON-PD,INVESTIGATOR,NA,NA,2014-01-22,3,2014-01-01,OVR,Overall Response by Investigator,Tumor Response,Investigator,RECIST 1.1,2014-01-22,NA,WEEK 3,NON-CR/NON-PD,4,Y,Y,11,1097,2014-01-01,2014-07-09,2014-01-01,2014-07-09,NA,2014-07-09T09:39,NA,NA,701,68,YEARS,M,WHITE,NOT HISPANIC OR LATINO,Xan_Lo,Xanomeline Low Dose,Xan_Lo,Xanomeline Low Dose,USA,2013-12-23,-9,Xanomeline Low Dose,Xanomeline Low Dose,2014-01-01T00:00:00Z,H,2014-07-09T23:59:59Z,H,2014-01-01,2014-07-09,190,NA,2014-07-09,COMPLETED,NA,NA,NA,NA,NA,2014-07-09,Y,White,>64,"NA",NA,NA,NA,NA
NA,CDISCPILOT01,01-701-1097,NA,NA,NA,NA,NA,NA,NA,NA,NA,NA,NA,2014-01-01,PD,Disease Progression by Investigator,Tumor Response,Investigator,RECIST 1.1,NA,NA,NA,N,0,Y,NA,12,1097,2014-01-01,2014-07-09,2014-01-01,2014-07-09,NA,2014-07-09T09:39,NA,NA,701,68,YEARS,M,WHITE,NOT HISPANIC OR LATINO,Xan_Lo,Xanomeline Low Dose,Xan_Lo,Xanomeline Low Dose,USA,2013-12-23,-9,Xanomeline Low Dose,Xanomeline Low Dose,2014-01-01T00:00:00Z,H,2014-07-09T23:59:59Z,H,2014-01-01,2014-07-09,190,NA,2014-07-09,COMPLETED,NA,NA,NA,NA,NA,2014-07-09,Y,White,>64,"NA",NA,NA,NA,NA
NA,CDISCPILOT01,01-701-1097,NA,NA,NA,NA,NA,NA,NA,NA,NA,NA,NA,2014-01-01,RSP,Response by Investigator (confirmation not required),Tumor Response,Investigator,RECIST 1.1,NA,NA,NA,N,0,Y,NA,13,1097,2014-01-01,2014-07-09,2014-01-01,2014-07-09,NA,2014-07-09T09:39,NA,NA,701,68,YEARS,M,WHITE,NOT HISPANIC OR LATINO,Xan_Lo,Xanomeline Low Dose,Xan_Lo,Xanomeline Low Dose,USA,2013-12-23,-9,Xanomeline Low Dose,Xanomeline Low Dose,2014-01-01T00:00:00Z,H,2014-07-09T23:59:59Z,H,2014-01-01,2014-07-09,190,NA,2014-07-09,COMPLETED,NA,NA,NA,NA,NA,2014-07-09,Y,White,>64,"NA",NA,NA,NA,NA
NA,CDISCPILOT01,01-701-1111,NA,NA,NA,NA,NA,NA,NA,NA,NA,NA,NA,2012-09-07,BCP,Best Overall Response of CR/PR by Investigator (confirmation not required),Tumor Response,Investigator,RECIST 1.1,NA,NA,NA,N,0,Y,NA,1,1111,2012-09-07,2012-09-17,2012-09-07,2012-09-16,NA,2013-02-22,NA,NA,701,81,YEARS,F,WHITE,NOT HISPANIC OR LATINO,Xan_Lo,Xanomeline Low Dose,Xan_Lo,Xanomeline Low Dose,USA,2012-08-25,-13,Xanomeline Low Dose,Xanomeline Low Dose,2012-09-07T00:00:00Z,H,2012-09-16T23:59:59Z,H,2012-09-07,2012-09-16,10,NA,2012-09-17,DISCONTINUED,2013-02-22,NA,NA,NA,NA,2012-09-17,Y,White,>64,"NA",NA,NA,NA,NA
NA,CDISCPILOT01,01-701-1111,NA,NA,NA,NA,NA,NA,NA,NA,NA,NA,NA,2012-09-07,BOR,Best Overall Response by Investigator (confirmation not required),Tumor Response,Investigator,RECIST 1.1,NA,NA,NA,MISSING,7,Y,NA,2,1111,2012-09-07,2012-09-17,2012-09-07,2012-09-16,NA,2013-02-22,NA,NA,701,81,YEARS,F,WHITE,NOT HISPANIC OR LATINO,Xan_Lo,Xanomeline Low Dose,Xan_Lo,Xanomeline Low Dose,USA,2012-08-25,-13,Xanomeline Low Dose,Xanomeline Low Dose,2012-09-07T00:00:00Z,H,2012-09-16T23:59:59Z,H,2012-09-07,2012-09-16,10,NA,2012-09-17,DISCONTINUED,2013-02-22,NA,NA,NA,NA,2012-09-17,Y,White,>64,"NA",NA,NA,NA,NA
NA,CDISCPILOT01,01-701-1111,NA,NA,NA,NA,NA,NA,NA,NA,NA,NA,NA,2012-09-07,CB,Clinical Benefit by Investigator (confirmation for response not required),Tumor Response,Investigator,RECIST 1.1,NA,NA,NA,N,0,Y,NA,3,1111,2012-09-07,2012-09-17,2012-09-07,2012-09-16,NA,2013-02-22,NA,NA,701,81,YEARS,F,WHITE,NOT HISPANIC OR LATINO,Xan_Lo,Xanomeline Low Dose,Xan_Lo,Xanomeline Low Dose,USA,2012-08-25,-13,Xanomeline Low Dose,Xanomeline Low Dose,2012-09-07T00:00:00Z,H,2012-09-16T23:59:59Z,H,2012-09-07,2012-09-16,10,NA,2012-09-17,DISCONTINUED,2013-02-22,NA,NA,NA,NA,2012-09-17,Y,White,>64,"NA",NA,NA,NA,NA
NA,CDISCPILOT01,01-701-1111,NA,NA,NA,NA,NA,NA,NA,NA,NA,NA,NA,2012-09-07,CBCP,Best Confirmed Overall Response of CR/PR by Investigator,Tumor Response,Investigator,RECIST 1.1,NA,NA,NA,N,0,Y,NA,4,1111,2012-09-07,2012-09-17,2012-09-07,2012-09-16,NA,2013-02-22,NA,NA,701,81,YEARS,F,WHITE,NOT HISPANIC OR LATINO,Xan_Lo,Xanomeline Low Dose,Xan_Lo,Xanomeline Low Dose,USA,2012-08-25,-13,Xanomeline Low Dose,Xanomeline Low Dose,2012-09-07T00:00:00Z,H,2012-09-16T23:59:59Z,H,2012-09-07,2012-09-16,10,NA,2012-09-17,DISCONTINUED,2013-02-22,NA,NA,NA,NA,2012-09-17,Y,White,>64,"NA",NA,NA,NA,NA
NA,CDISCPILOT01,01-701-1111,NA,NA,NA,NA,NA,NA,NA,NA,NA,NA,NA,2012-09-07,CBOR,Best Confirmed Overall Response by Investigator,Tumor Response,Investigator,RECIST 1.1,NA,NA,NA,MISSING,7,Y,NA,5,1111,2012-09-07,2012-09-17,2012-09-07,2012-09-16,NA,2013-02-22,NA,NA,701,81,YEARS,F,WHITE,NOT HISPANIC OR LATINO,Xan_Lo,Xanomeline Low Dose,Xan_Lo,Xanomeline Low Dose,USA,2012-08-25,-13,Xanomeline Low Dose,Xanomeline Low Dose,2012-09-07T00:00:00Z,H,2012-09-16T23:59:59Z,H,2012-09-07,2012-09-16,10,NA,2012-09-17,DISCONTINUED,2013-02-22,NA,NA,NA,NA,2012-09-17,Y,White,>64,"NA",NA,NA,NA,NA
NA,CDISCPILOT01,01-701-1111,NA,NA,NA,NA,NA,NA,NA,NA,NA,NA,NA,2012-09-07,CCB,Confirmed Clinical Benefit by Investigator,Tumor Response,Investigator,RECIST 1.1,NA,NA,NA,N,0,Y,NA,6,1111,2012-09-07,2012-09-17,2012-09-07,2012-09-16,NA,2013-02-22,NA,NA,701,81,YEARS,F,WHITE,NOT HISPANIC OR LATINO,Xan_Lo,Xanomeline Low Dose,Xan_Lo,Xanomeline Low Dose,USA,2012-08-25,-13,Xanomeline Low Dose,Xanomeline Low Dose,2012-09-07T00:00:00Z,H,2012-09-16T23:59:59Z,H,2012-09-07,2012-09-16,10,NA,2012-09-17,DISCONTINUED,2013-02-22,NA,NA,NA,NA,2012-09-17,Y,White,>64,"NA",NA,NA,NA,NA
NA,CDISCPILOT01,01-701-1111,NA,NA,NA,NA,NA,NA,NA,NA,NA,NA,NA,2012-09-07,CRSP,Confirmed Response by Investigator,Tumor Response,Investigator,RECIST 1.1,NA,NA,NA,N,0,Y,NA,7,1111,2012-09-07,2012-09-17,2012-09-07,2012-09-16,NA,2013-02-22,NA,NA,701,81,YEARS,F,WHITE,NOT HISPANIC OR LATINO,Xan_Lo,Xanomeline Low Dose,Xan_Lo,Xanomeline Low Dose,USA,2012-08-25,-13,Xanomeline Low Dose,Xanomeline Low Dose,2012-09-07T00:00:00Z,H,2012-09-16T23:59:59Z,H,2012-09-07,2012-09-16,10,NA,2012-09-17,DISCONTINUED,2013-02-22,NA,NA,NA,NA,2012-09-17,Y,White,>64,"NA",NA,NA,NA,NA
NA,CDISCPILOT01,01-701-1111,NA,NA,NA,NA,NA,NA,NA,NA,NA,NA,NA,2012-09-07,DEATH,Death,Reference Event,NA,NA,NA,NA,NA,N,0,Y,NA,8,1111,2012-09-07,2012-09-17,2012-09-07,2012-09-16,NA,2013-02-22,NA,NA,701,81,YEARS,F,WHITE,NOT HISPANIC OR LATINO,Xan_Lo,Xanomeline Low Dose,Xan_Lo,Xanomeline Low Dose,USA,2012-08-25,-13,Xanomeline Low Dose,Xanomeline Low Dose,2012-09-07T00:00:00Z,H,2012-09-16T23:59:59Z,H,2012-09-07,2012-09-16,10,NA,2012-09-17,DISCONTINUED,2013-02-22,NA,NA,NA,NA,2012-09-17,Y,White,>64,"NA",NA,NA,NA,NA
NA,CDISCPILOT01,01-701-1111,NA,NA,NA,NA,NA,NA,NA,NA,NA,NA,NA,2012-09-07,LSTA,Last Disease Assessment by Investigator,Tumor Response,Investigator,RECIST 1.1,NA,NA,NA,NA,NA,Y,NA,9,1111,2012-09-07,2012-09-17,2012-09-07,2012-09-16,NA,2013-02-22,NA,NA,701,81,YEARS,F,WHITE,NOT HISPANIC OR LATINO,Xan_Lo,Xanomeline Low Dose,Xan_Lo,Xanomeline Low Dose,USA,2012-08-25,-13,Xanomeline Low Dose,Xanomeline Low Dose,2012-09-07T00:00:00Z,H,2012-09-16T23:59:59Z,H,2012-09-07,2012-09-16,10,NA,2012-09-17,DISCONTINUED,2013-02-22,NA,NA,NA,NA,2012-09-17,Y,White,>64,"NA",NA,NA,NA,NA
NA,CDISCPILOT01,01-701-1111,NA,NA,NA,NA,NA,NA,NA,NA,NA,NA,NA,2012-09-07,MDIS,Measurable Disease at Baseline by Investigator,NA,Investigator,RECIST 1.1,NA,NA,NA,N,0,Y,NA,10,1111,2012-09-07,2012-09-17,2012-09-07,2012-09-16,NA,2013-02-22,NA,NA,701,81,YEARS,F,WHITE,NOT HISPANIC OR LATINO,Xan_Lo,Xanomeline Low Dose,Xan_Lo,Xanomeline Low Dose,USA,2012-08-25,-13,Xanomeline Low Dose,Xanomeline Low Dose,2012-09-07T00:00:00Z,H,2012-09-16T23:59:59Z,H,2012-09-07,2012-09-16,10,NA,2012-09-17,DISCONTINUED,2013-02-22,NA,NA,NA,NA,2012-09-17,Y,White,>64,"NA",NA,NA,NA,NA
NA,CDISCPILOT01,01-701-1111,NA,NA,NA,NA,NA,NA,NA,NA,NA,NA,NA,2012-09-07,PD,Disease Progression by Investigator,Tumor Response,Investigator,RECIST 1.1,NA,NA,NA,N,0,Y,NA,11,1111,2012-09-07,2012-09-17,2012-09-07,2012-09-16,NA,2013-02-22,NA,NA,701,81,YEARS,F,WHITE,NOT HISPANIC OR LATINO,Xan_Lo,Xanomeline Low Dose,Xan_Lo,Xanomeline Low Dose,USA,2012-08-25,-13,Xanomeline Low Dose,Xanomeline Low Dose,2012-09-07T00:00:00Z,H,2012-09-16T23:59:59Z,H,2012-09-07,2012-09-16,10,NA,2012-09-17,DISCONTINUED,2013-02-22,NA,NA,NA,NA,2012-09-17,Y,White,>64,"NA",NA,NA,NA,NA
NA,CDISCPILOT01,01-701-1111,NA,NA,NA,NA,NA,NA,NA,NA,NA,NA,NA,2012-09-07,RSP,Response by Investigator (confirmation not required),Tumor Response,Investigator,RECIST 1.1,NA,NA,NA,N,0,Y,NA,12,1111,2012-09-07,2012-09-17,2012-09-07,2012-09-16,NA,2013-02-22,NA,NA,701,81,YEARS,F,WHITE,NOT HISPANIC OR LATINO,Xan_Lo,Xanomeline Low Dose,Xan_Lo,Xanomeline Low Dose,USA,2012-08-25,-13,Xanomeline Low Dose,Xanomeline Low Dose,2012-09-07T00:00:00Z,H,2012-09-16T23:59:59Z,H,2012-09-07,2012-09-16,10,NA,2012-09-17,DISCONTINUED,2013-02-22,NA,NA,NA,NA,2012-09-17,Y,White,>64,"NA",NA,NA,NA,NA
RS,CDISCPILOT01,01-701-1115,4,WEEK 9,OVRLRESP,Overall Response,CR,CR,INVESTIGATOR,NA,NA,2013-02-01,9,2012-11-30,BCP,Best Overall Response of CR/PR by Investigator (confirmation not required),Tumor Response,Investigator,RECIST 1.1,2013-02-01,NA,WEEK 9,Y,1,Y,Y,1,1115,2012-11-30,2013-01-23,2012-11-30,2013-01-23,NA,2013-05-20,NA,NA,701,84,YEARS,M,WHITE,NOT HISPANIC OR LATINO,Xan_Lo,Xanomeline Low Dose,Xan_Lo,Xanomeline Low Dose,USA,2012-11-23,-7,Xanomeline Low Dose,Xanomeline Low Dose,2012-11-30T00:00:00Z,H,2013-01-23T23:59:59Z,H,2012-11-30,2013-01-23,55,NA,2013-01-23,DISCONTINUED,2013-05-20,NA,NA,NA,NA,2013-01-23,Y,White,>64,"NA",NA,NA,NA,NA
RS,CDISCPILOT01,01-701-1115,4,WEEK 9,OVRLRESP,Overall Response,CR,CR,INVESTIGATOR,NA,NA,2013-02-01,9,2012-11-30,BOR,Best Overall Response by Investigator (confirmation not required),Tumor Response,Investigator,RECIST 1.1,2013-02-01,NA,WEEK 9,CR,1,Y,Y,2,1115,2012-11-30,2013-01-23,2012-11-30,2013-01-23,NA,2013-05-20,NA,NA,701,84,YEARS,M,WHITE,NOT HISPANIC OR LATINO,Xan_Lo,Xanomeline Low Dose,Xan_Lo,Xanomeline Low Dose,USA,2012-11-23,-7,Xanomeline Low Dose,Xanomeline Low Dose,2012-11-30T00:00:00Z,H,2013-01-23T23:59:59Z,H,2012-11-30,2013-01-23,55,NA,2013-01-23,DISCONTINUED,2013-05-20,NA,NA,NA,NA,2013-01-23,Y,White,>64,"NA",NA,NA,NA,NA
RS,CDISCPILOT01,01-701-1115,3,WEEK 6,OVRLRESP,Overall Response,PR,PR,INVESTIGATOR,NA,NA,2013-01-11,6,2012-11-30,CB,Clinical Benefit by Investigator (confirmation for response not required),Tumor Response,Investigator,RECIST 1.1,2013-01-11,NA,WEEK 6,Y,1,Y,Y,3,1115,2012-11-30,2013-01-23,2012-11-30,2013-01-23,NA,2013-05-20,NA,NA,701,84,YEARS,M,WHITE,NOT HISPANIC OR LATINO,Xan_Lo,Xanomeline Low Dose,Xan_Lo,Xanomeline Low Dose,USA,2012-11-23,-7,Xanomeline Low Dose,Xanomeline Low Dose,2012-11-30T00:00:00Z,H,2013-01-23T23:59:59Z,H,2012-11-30,2013-01-23,55,NA,2013-01-23,DISCONTINUED,2013-05-20,NA,NA,NA,NA,2013-01-23,Y,White,>64,"NA",NA,NA,NA,NA
NA,CDISCPILOT01,01-701-1115,NA,NA,NA,NA,NA,NA,NA,NA,NA,NA,NA,2012-11-30,CBCP,Best Confirmed Overall Response of CR/PR by Investigator,Tumor Response,Investigator,RECIST 1.1,NA,NA,NA,N,0,Y,NA,4,1115,2012-11-30,2013-01-23,2012-11-30,2013-01-23,NA,2013-05-20,NA,NA,701,84,YEARS,M,WHITE,NOT HISPANIC OR LATINO,Xan_Lo,Xanomeline Low Dose,Xan_Lo,Xanomeline Low Dose,USA,2012-11-23,-7,Xanomeline Low Dose,Xanomeline Low Dose,2012-11-30T00:00:00Z,H,2013-01-23T23:59:59Z,H,2012-11-30,2013-01-23,55,NA,2013-01-23,DISCONTINUED,2013-05-20,NA,NA,NA,NA,2013-01-23,Y,White,>64,"NA",NA,NA,NA,NA
RS,CDISCPILOT01,01-701-1115,3,WEEK 6,OVRLRESP,Overall Response,PR,PR,INVESTIGATOR,NA,NA,2013-01-11,6,2012-11-30,CBOR,Best Confirmed Overall Response by Investigator,Tumor Response,Investigator,RECIST 1.1,2013-01-11,NA,WEEK 6,SD,3,Y,Y,5,1115,2012-11-30,2013-01-23,2012-11-30,2013-01-23,NA,2013-05-20,NA,NA,701,84,YEARS,M,WHITE,NOT HISPANIC OR LATINO,Xan_Lo,Xanomeline Low Dose,Xan_Lo,Xanomeline Low Dose,USA,2012-11-23,-7,Xanomeline Low Dose,Xanomeline Low Dose,2012-11-30T00:00:00Z,H,2013-01-23T23:59:59Z,H,2012-11-30,2013-01-23,55,NA,2013-01-23,DISCONTINUED,2013-05-20,NA,NA,NA,NA,2013-01-23,Y,White,>64,"NA",NA,NA,NA,NA
RS,CDISCPILOT01,01-701-1115,3,WEEK 6,OVRLRESP,Overall Response,PR,PR,INVESTIGATOR,NA,NA,2013-01-11,6,2012-11-30,CCB,Confirmed Clinical Benefit by Investigator,Tumor Response,Investigator,RECIST 1.1,2013-01-11,NA,WEEK 6,Y,1,Y,Y,6,1115,2012-11-30,2013-01-23,2012-11-30,2013-01-23,NA,2013-05-20,NA,NA,701,84,YEARS,M,WHITE,NOT HISPANIC OR LATINO,Xan_Lo,Xanomeline Low Dose,Xan_Lo,Xanomeline Low Dose,USA,2012-11-23,-7,Xanomeline Low Dose,Xanomeline Low Dose,2012-11-30T00:00:00Z,H,2013-01-23T23:59:59Z,H,2012-11-30,2013-01-23,55,NA,2013-01-23,DISCONTINUED,2013-05-20,NA,NA,NA,NA,2013-01-23,Y,White,>64,"NA",NA,NA,NA,NA
NA,CDISCPILOT01,01-701-1115,NA,NA,NA,NA,NA,NA,NA,NA,NA,NA,NA,2012-11-30,CRSP,Confirmed Response by Investigator,Tumor Response,Investigator,RECIST 1.1,NA,NA,NA,N,0,Y,NA,7,1115,2012-11-30,2013-01-23,2012-11-30,2013-01-23,NA,2013-05-20,NA,NA,701,84,YEARS,M,WHITE,NOT HISPANIC OR LATINO,Xan_Lo,Xanomeline Low Dose,Xan_Lo,Xanomeline Low Dose,USA,2012-11-23,-7,Xanomeline Low Dose,Xanomeline Low Dose,2012-11-30T00:00:00Z,H,2013-01-23T23:59:59Z,H,2012-11-30,2013-01-23,55,NA,2013-01-23,DISCONTINUED,2013-05-20,NA,NA,NA,NA,2013-01-23,Y,White,>64,"NA",NA,NA,NA,NA
NA,CDISCPILOT01,01-701-1115,NA,NA,NA,NA,NA,NA,NA,NA,NA,NA,NA,2012-11-30,DEATH,Death,Reference Event,NA,NA,NA,NA,NA,N,0,Y,NA,8,1115,2012-11-30,2013-01-23,2012-11-30,2013-01-23,NA,2013-05-20,NA,NA,701,84,YEARS,M,WHITE,NOT HISPANIC OR LATINO,Xan_Lo,Xanomeline Low Dose,Xan_Lo,Xanomeline Low Dose,USA,2012-11-23,-7,Xanomeline Low Dose,Xanomeline Low Dose,2012-11-30T00:00:00Z,H,2013-01-23T23:59:59Z,H,2012-11-30,2013-01-23,55,NA,2013-01-23,DISCONTINUED,2013-05-20,NA,NA,NA,NA,2013-01-23,Y,White,>64,"NA",NA,NA,NA,NA
RS,CDISCPILOT01,01-701-1115,4,WEEK 9,OVRLRESP,Overall Response,CR,CR,INVESTIGATOR,NA,NA,2013-02-01,9,2012-11-30,LSTA,Last Disease Assessment by Investigator,Tumor Response,Investigator,RECIST 1.1,2013-02-01,NA,WEEK 9,CR,1,Y,Y,9,1115,2012-11-30,2013-01-23,2012-11-30,2013-01-23,NA,2013-05-20,NA,NA,701,84,YEARS,M,WHITE,NOT HISPANIC OR LATINO,Xan_Lo,Xanomeline Low Dose,Xan_Lo,Xanomeline Low Dose,USA,2012-11-23,-7,Xanomeline Low Dose,Xanomeline Low Dose,2012-11-30T00:00:00Z,H,2013-01-23T23:59:59Z,H,2012-11-30,2013-01-23,55,NA,2013-01-23,DISCONTINUED,2013-05-20,NA,NA,NA,NA,2013-01-23,Y,White,>64,"NA",NA,NA,NA,NA
NA,CDISCPILOT01,01-701-1115,NA,NA,NA,NA,NA,NA,NA,NA,NA,NA,NA,2012-11-30,MDIS,Measurable Disease at Baseline by Investigator,NA,Investigator,RECIST 1.1,NA,NA,NA,Y,1,Y,NA,10,1115,2012-11-30,2013-01-23,2012-11-30,2013-01-23,NA,2013-05-20,NA,NA,701,84,YEARS,M,WHITE,NOT HISPANIC OR LATINO,Xan_Lo,Xanomeline Low Dose,Xan_Lo,Xanomeline Low Dose,USA,2012-11-23,-7,Xanomeline Low Dose,Xanomeline Low Dose,2012-11-30T00:00:00Z,H,2013-01-23T23:59:59Z,H,2012-11-30,2013-01-23,55,NA,2013-01-23,DISCONTINUED,2013-05-20,NA,NA,NA,NA,2013-01-23,Y,White,>64,"NA",NA,NA,NA,NA
RS,CDISCPILOT01,01-701-1115,2,WEEK 3,OVRLRESP,Overall Response,SD,SD,INVESTIGATOR,NA,NA,2012-12-21,3,2012-11-30,OVR,Overall Response by Investigator,Tumor Response,Investigator,RECIST 1.1,2012-12-21,NA,WEEK 3,SD,3,Y,Y,11,1115,2012-11-30,2013-01-23,2012-11-30,2013-01-23,NA,2013-05-20,NA,NA,701,84,YEARS,M,WHITE,NOT HISPANIC OR LATINO,Xan_Lo,Xanomeline Low Dose,Xan_Lo,Xanomeline Low Dose,USA,2012-11-23,-7,Xanomeline Low Dose,Xanomeline Low Dose,2012-11-30T00:00:00Z,H,2013-01-23T23:59:59Z,H,2012-11-30,2013-01-23,55,NA,2013-01-23,DISCONTINUED,2013-05-20,NA,NA,NA,NA,2013-01-23,Y,White,>64,"NA",NA,NA,NA,NA
RS,CDISCPILOT01,01-701-1115,3,WEEK 6,OVRLRESP,Overall Response,PR,PR,INVESTIGATOR,NA,NA,2013-01-11,6,2012-11-30,OVR,Overall Response by Investigator,Tumor Response,Investigator,RECIST 1.1,2013-01-11,NA,WEEK 6,PR,2,Y,Y,12,1115,2012-11-30,2013-01-23,2012-11-30,2013-01-23,NA,2013-05-20,NA,NA,701,84,YEARS,M,WHITE,NOT HISPANIC OR LATINO,Xan_Lo,Xanomeline Low Dose,Xan_Lo,Xanomeline Low Dose,USA,2012-11-23,-7,Xanomeline Low Dose,Xanomeline Low Dose,2012-11-30T00:00:00Z,H,2013-01-23T23:59:59Z,H,2012-11-30,2013-01-23,55,NA,2013-01-23,DISCONTINUED,2013-05-20,NA,NA,NA,NA,2013-01-23,Y,White,>64,"NA",NA,NA,NA,NA
RS,CDISCPILOT01,01-701-1115,4,WEEK 9,OVRLRESP,Overall Response,CR,CR,INVESTIGATOR,NA,NA,2013-02-01,9,2012-11-30,OVR,Overall Response by Investigator,Tumor Response,Investigator,RECIST 1.1,2013-02-01,NA,WEEK 9,CR,1,Y,Y,13,1115,2012-11-30,2013-01-23,2012-11-30,2013-01-23,NA,2013-05-20,NA,NA,701,84,YEARS,M,WHITE,NOT HISPANIC OR LATINO,Xan_Lo,Xanomeline Low Dose,Xan_Lo,Xanomeline Low Dose,USA,2012-11-23,-7,Xanomeline Low Dose,Xanomeline Low Dose,2012-11-30T00:00:00Z,H,2013-01-23T23:59:59Z,H,2012-11-30,2013-01-23,55,NA,2013-01-23,DISCONTINUED,2013-05-20,NA,NA,NA,NA,2013-01-23,Y,White,>64,"NA",NA,NA,NA,NA
NA,CDISCPILOT01,01-701-1115,NA,NA,NA,NA,NA,NA,NA,NA,NA,NA,NA,2012-11-30,PD,Disease Progression by Investigator,Tumor Response,Investigator,RECIST 1.1,NA,NA,NA,N,0,Y,NA,14,1115,2012-11-30,2013-01-23,2012-11-30,2013-01-23,NA,2013-05-20,NA,NA,701,84,YEARS,M,WHITE,NOT HISPANIC OR LATINO,Xan_Lo,Xanomeline Low Dose,Xan_Lo,Xanomeline Low Dose,USA,2012-11-23,-7,Xanomeline Low Dose,Xanomeline Low Dose,2012-11-30T00:00:00Z,H,2013-01-23T23:59:59Z,H,2012-11-30,2013-01-23,55,NA,2013-01-23,DISCONTINUED,2013-05-20,NA,NA,NA,NA,2013-01-23,Y,White,>64,"NA",NA,NA,NA,NA
RS,CDISCPILOT01,01-701-1115,3,WEEK 6,OVRLRESP,Overall Response,PR,PR,INVESTIGATOR,NA,NA,2013-01-11,6,2012-11-30,RSP,Response by Investigator (confirmation not required),Tumor Response,Investigator,RECIST 1.1,2013-01-11,NA,WEEK 6,Y,1,Y,Y,15,1115,2012-11-30,2013-01-23,2012-11-30,2013-01-23,NA,2013-05-20,NA,NA,701,84,YEARS,M,WHITE,NOT HISPANIC OR LATINO,Xan_Lo,Xanomeline Low Dose,Xan_Lo,Xanomeline Low Dose,USA,2012-11-23,-7,Xanomeline Low Dose,Xanomeline Low Dose,2012-11-30T00:00:00Z,H,2013-01-23T23:59:59Z,H,2012-11-30,2013-01-23,55,NA,2013-01-23,DISCONTINUED,2013-05-20,NA,NA,NA,NA,2013-01-23,Y,White,>64,"NA",NA,NA,NA,NA
RS,CDISCPILOT01,01-701-1118,3,WEEK 6,OVRLRESP,Overall Response,PR,PR,INVESTIGATOR,NA,NA,2014-04-23,6,2014-03-12,BCP,Best Overall Response of CR/PR by Investigator (confirmation not required),Tumor Response,Investigator,RECIST 1.1,2014-04-23,NA,WEEK 6,Y,1,Y,Y,1,1118,2014-03-12,2014-09-09,2014-03-12,2014-09-09,NA,2014-09-09T13:28,NA,NA,701,52,YEARS,M,WHITE,NOT HISPANIC OR LATINO,Pbo,Placebo,Pbo,Placebo,USA,2014-02-27,-13,Placebo,Placebo,2014-03-12T00:00:00Z,H,2014-09-09T23:59:59Z,H,2014-03-12,2014-09-09,182,NA,2014-09-09,COMPLETED,NA,NA,NA,NA,NA,2014-09-09,Y,White,18-64,"NA",NA,NA,NA,NA
RS,CDISCPILOT01,01-701-1118,3,WEEK 6,OVRLRESP,Overall Response,PR,PR,INVESTIGATOR,NA,NA,2014-04-23,6,2014-03-12,BOR,Best Overall Response by Investigator (confirmation not required),Tumor Response,Investigator,RECIST 1.1,2014-04-23,NA,WEEK 6,PR,2,Y,Y,2,1118,2014-03-12,2014-09-09,2014-03-12,2014-09-09,NA,2014-09-09T13:28,NA,NA,701,52,YEARS,M,WHITE,NOT HISPANIC OR LATINO,Pbo,Placebo,Pbo,Placebo,USA,2014-02-27,-13,Placebo,Placebo,2014-03-12T00:00:00Z,H,2014-09-09T23:59:59Z,H,2014-03-12,2014-09-09,182,NA,2014-09-09,COMPLETED,NA,NA,NA,NA,NA,2014-09-09,Y,White,18-64,"NA",NA,NA,NA,NA
RS,CDISCPILOT01,01-701-1118,3,WEEK 6,OVRLRESP,Overall Response,PR,PR,INVESTIGATOR,NA,NA,2014-04-23,6,2014-03-12,CB,Clinical Benefit by Investigator (confirmation for response not required),Tumor Response,Investigator,RECIST 1.1,2014-04-23,NA,WEEK 6,Y,1,Y,Y,3,1118,2014-03-12,2014-09-09,2014-03-12,2014-09-09,NA,2014-09-09T13:28,NA,NA,701,52,YEARS,M,WHITE,NOT HISPANIC OR LATINO,Pbo,Placebo,Pbo,Placebo,USA,2014-02-27,-13,Placebo,Placebo,2014-03-12T00:00:00Z,H,2014-09-09T23:59:59Z,H,2014-03-12,2014-09-09,182,NA,2014-09-09,COMPLETED,NA,NA,NA,NA,NA,2014-09-09,Y,White,18-64,"NA",NA,NA,NA,NA
NA,CDISCPILOT01,01-701-1118,NA,NA,NA,NA,NA,NA,NA,NA,NA,NA,NA,2014-03-12,CBCP,Best Confirmed Overall Response of CR/PR by Investigator,Tumor Response,Investigator,RECIST 1.1,NA,NA,NA,N,0,Y,NA,4,1118,2014-03-12,2014-09-09,2014-03-12,2014-09-09,NA,2014-09-09T13:28,NA,NA,701,52,YEARS,M,WHITE,NOT HISPANIC OR LATINO,Pbo,Placebo,Pbo,Placebo,USA,2014-02-27,-13,Placebo,Placebo,2014-03-12T00:00:00Z,H,2014-09-09T23:59:59Z,H,2014-03-12,2014-09-09,182,NA,2014-09-09,COMPLETED,NA,NA,NA,NA,NA,2014-09-09,Y,White,18-64,"NA",NA,NA,NA,NA
RS,CDISCPILOT01,01-701-1118,3,WEEK 6,OVRLRESP,Overall Response,PR,PR,INVESTIGATOR,NA,NA,2014-04-23,6,2014-03-12,CBOR,Best Confirmed Overall Response by Investigator,Tumor Response,Investigator,RECIST 1.1,2014-04-23,NA,WEEK 6,PR,2,Y,Y,5,1118,2014-03-12,2014-09-09,2014-03-12,2014-09-09,NA,2014-09-09T13:28,NA,NA,701,52,YEARS,M,WHITE,NOT HISPANIC OR LATINO,Pbo,Placebo,Pbo,Placebo,USA,2014-02-27,-13,Placebo,Placebo,2014-03-12T00:00:00Z,H,2014-09-09T23:59:59Z,H,2014-03-12,2014-09-09,182,NA,2014-09-09,COMPLETED,NA,NA,NA,NA,NA,2014-09-09,Y,White,18-64,"NA",NA,NA,NA,NA
RS,CDISCPILOT01,01-701-1118,3,WEEK 6,OVRLRESP,Overall Response,PR,PR,INVESTIGATOR,NA,NA,2014-04-23,6,2014-03-12,CCB,Confirmed Clinical Benefit by Investigator,Tumor Response,Investigator,RECIST 1.1,2014-04-23,NA,WEEK 6,Y,1,Y,Y,6,1118,2014-03-12,2014-09-09,2014-03-12,2014-09-09,NA,2014-09-09T13:28,NA,NA,701,52,YEARS,M,WHITE,NOT HISPANIC OR LATINO,Pbo,Placebo,Pbo,Placebo,USA,2014-02-27,-13,Placebo,Placebo,2014-03-12T00:00:00Z,H,2014-09-09T23:59:59Z,H,2014-03-12,2014-09-09,182,NA,2014-09-09,COMPLETED,NA,NA,NA,NA,NA,2014-09-09,Y,White,18-64,"NA",NA,NA,NA,NA
RS,CDISCPILOT01,01-701-1118,3,WEEK 6,OVRLRESP,Overall Response,PR,PR,INVESTIGATOR,NA,NA,2014-04-23,6,2014-03-12,CRSP,Confirmed Response by Investigator,Tumor Response,Investigator,RECIST 1.1,2014-04-23,NA,WEEK 6,Y,1,Y,Y,7,1118,2014-03-12,2014-09-09,2014-03-12,2014-09-09,NA,2014-09-09T13:28,NA,NA,701,52,YEARS,M,WHITE,NOT HISPANIC OR LATINO,Pbo,Placebo,Pbo,Placebo,USA,2014-02-27,-13,Placebo,Placebo,2014-03-12T00:00:00Z,H,2014-09-09T23:59:59Z,H,2014-03-12,2014-09-09,182,NA,2014-09-09,COMPLETED,NA,NA,NA,NA,NA,2014-09-09,Y,White,18-64,"NA",NA,NA,NA,NA
NA,CDISCPILOT01,01-701-1118,NA,NA,NA,NA,NA,NA,NA,NA,NA,NA,NA,2014-03-12,DEATH,Death,Reference Event,NA,NA,NA,NA,NA,N,0,Y,NA,8,1118,2014-03-12,2014-09-09,2014-03-12,2014-09-09,NA,2014-09-09T13:28,NA,NA,701,52,YEARS,M,WHITE,NOT HISPANIC OR LATINO,Pbo,Placebo,Pbo,Placebo,USA,2014-02-27,-13,Placebo,Placebo,2014-03-12T00:00:00Z,H,2014-09-09T23:59:59Z,H,2014-03-12,2014-09-09,182,NA,2014-09-09,COMPLETED,NA,NA,NA,NA,NA,2014-09-09,Y,White,18-64,"NA",NA,NA,NA,NA
RS,CDISCPILOT01,01-701-1118,5,WEEK 12,OVRLRESP,Overall Response,PR,PR,INVESTIGATOR,NA,NA,2014-06-04,12,2014-03-12,LSTA,Last Disease Assessment by Investigator,Tumor Response,Investigator,RECIST 1.1,2014-06-04,NA,WEEK 12,PR,2,Y,Y,9,1118,2014-03-12,2014-09-09,2014-03-12,2014-09-09,NA,2014-09-09T13:28,NA,NA,701,52,YEARS,M,WHITE,NOT HISPANIC OR LATINO,Pbo,Placebo,Pbo,Placebo,USA,2014-02-27,-13,Placebo,Placebo,2014-03-12T00:00:00Z,H,2014-09-09T23:59:59Z,H,2014-03-12,2014-09-09,182,NA,2014-09-09,COMPLETED,NA,NA,NA,NA,NA,2014-09-09,Y,White,18-64,"NA",NA,NA,NA,NA
NA,CDISCPILOT01,01-701-1118,NA,NA,NA,NA,NA,NA,NA,NA,NA,NA,NA,2014-03-12,MDIS,Measurable Disease at Baseline by Investigator,NA,Investigator,RECIST 1.1,NA,NA,NA,Y,1,Y,NA,10,1118,2014-03-12,2014-09-09,2014-03-12,2014-09-09,NA,2014-09-09T13:28,NA,NA,701,52,YEARS,M,WHITE,NOT HISPANIC OR LATINO,Pbo,Placebo,Pbo,Placebo,USA,2014-02-27,-13,Placebo,Placebo,2014-03-12T00:00:00Z,H,2014-09-09T23:59:59Z,H,2014-03-12,2014-09-09,182,NA,2014-09-09,COMPLETED,NA,NA,NA,NA,NA,2014-09-09,Y,White,18-64,"NA",NA,NA,NA,NA
RS,CDISCPILOT01,01-701-1118,2,WEEK 3,OVRLRESP,Overall Response,SD,SD,INVESTIGATOR,NA,NA,2014-04-02,3,2014-03-12,OVR,Overall Response by Investigator,Tumor Response,Investigator,RECIST 1.1,2014-04-02,NA,WEEK 3,SD,3,Y,Y,11,1118,2014-03-12,2014-09-09,2014-03-12,2014-09-09,NA,2014-09-09T13:28,NA,NA,701,52,YEARS,M,WHITE,NOT HISPANIC OR LATINO,Pbo,Placebo,Pbo,Placebo,USA,2014-02-27,-13,Placebo,Placebo,2014-03-12T00:00:00Z,H,2014-09-09T23:59:59Z,H,2014-03-12,2014-09-09,182,NA,2014-09-09,COMPLETED,NA,NA,NA,NA,NA,2014-09-09,Y,White,18-64,"NA",NA,NA,NA,NA
RS,CDISCPILOT01,01-701-1118,3,WEEK 6,OVRLRESP,Overall Response,PR,PR,INVESTIGATOR,NA,NA,2014-04-23,6,2014-03-12,OVR,Overall Response by Investigator,Tumor Response,Investigator,RECIST 1.1,2014-04-23,NA,WEEK 6,PR,2,Y,Y,12,1118,2014-03-12,2014-09-09,2014-03-12,2014-09-09,NA,2014-09-09T13:28,NA,NA,701,52,YEARS,M,WHITE,NOT HISPANIC OR LATINO,Pbo,Placebo,Pbo,Placebo,USA,2014-02-27,-13,Placebo,Placebo,2014-03-12T00:00:00Z,H,2014-09-09T23:59:59Z,H,2014-03-12,2014-09-09,182,NA,2014-09-09,COMPLETED,NA,NA,NA,NA,NA,2014-09-09,Y,White,18-64,"NA",NA,NA,NA,NA
RS,CDISCPILOT01,01-701-1118,4,WEEK 9,OVRLRESP,Overall Response,NE,NE,INVESTIGATOR,NA,NA,2014-05-14,9,2014-03-12,OVR,Overall Response by Investigator,Tumor Response,Investigator,RECIST 1.1,2014-05-14,NA,WEEK 9,NE,6,Y,Y,13,1118,2014-03-12,2014-09-09,2014-03-12,2014-09-09,NA,2014-09-09T13:28,NA,NA,701,52,YEARS,M,WHITE,NOT HISPANIC OR LATINO,Pbo,Placebo,Pbo,Placebo,USA,2014-02-27,-13,Placebo,Placebo,2014-03-12T00:00:00Z,H,2014-09-09T23:59:59Z,H,2014-03-12,2014-09-09,182,NA,2014-09-09,COMPLETED,NA,NA,NA,NA,NA,2014-09-09,Y,White,18-64,"NA",NA,NA,NA,NA
RS,CDISCPILOT01,01-701-1118,5,WEEK 12,OVRLRESP,Overall Response,PR,PR,INVESTIGATOR,NA,NA,2014-06-04,12,2014-03-12,OVR,Overall Response by Investigator,Tumor Response,Investigator,RECIST 1.1,2014-06-04,NA,WEEK 12,PR,2,Y,Y,14,1118,2014-03-12,2014-09-09,2014-03-12,2014-09-09,NA,2014-09-09T13:28,NA,NA,701,52,YEARS,M,WHITE,NOT HISPANIC OR LATINO,Pbo,Placebo,Pbo,Placebo,USA,2014-02-27,-13,Placebo,Placebo,2014-03-12T00:00:00Z,H,2014-09-09T23:59:59Z,H,2014-03-12,2014-09-09,182,NA,2014-09-09,COMPLETED,NA,NA,NA,NA,NA,2014-09-09,Y,White,18-64,"NA",NA,NA,NA,NA
NA,CDISCPILOT01,01-701-1118,NA,NA,NA,NA,NA,NA,NA,NA,NA,NA,NA,2014-03-12,PD,Disease Progression by Investigator,Tumor Response,Investigator,RECIST 1.1,NA,NA,NA,N,0,Y,NA,15,1118,2014-03-12,2014-09-09,2014-03-12,2014-09-09,NA,2014-09-09T13:28,NA,NA,701,52,YEARS,M,WHITE,NOT HISPANIC OR LATINO,Pbo,Placebo,Pbo,Placebo,USA,2014-02-27,-13,Placebo,Placebo,2014-03-12T00:00:00Z,H,2014-09-09T23:59:59Z,H,2014-03-12,2014-09-09,182,NA,2014-09-09,COMPLETED,NA,NA,NA,NA,NA,2014-09-09,Y,White,18-64,"NA",NA,NA,NA,NA
RS,CDISCPILOT01,01-701-1118,3,WEEK 6,OVRLRESP,Overall Response,PR,PR,INVESTIGATOR,NA,NA,2014-04-23,6,2014-03-12,RSP,Response by Investigator (confirmation not required),Tumor Response,Investigator,RECIST 1.1,2014-04-23,NA,WEEK 6,Y,1,Y,Y,16,1118,2014-03-12,2014-09-09,2014-03-12,2014-09-09,NA,2014-09-09T13:28,NA,NA,701,52,YEARS,M,WHITE,NOT HISPANIC OR LATINO,Pbo,Placebo,Pbo,Placebo,USA,2014-02-27,-13,Placebo,Placebo,2014-03-12T00:00:00Z,H,2014-09-09T23:59:59Z,H,2014-03-12,2014-09-09,182,NA,2014-09-09,COMPLETED,NA,NA,NA,NA,NA,2014-09-09,Y,White,18-64,"NA",NA,NA,NA,NA
NA,CDISCPILOT01,01-701-1130,NA,NA,NA,NA,NA,NA,NA,NA,NA,NA,NA,2014-02-15,BCP,Best Overall Response of CR/PR by Investigator (confirmation not required),Tumor Response,Investigator,RECIST 1.1,NA,NA,NA,N,0,Y,NA,1,1130,2014-02-15,2014-08-16,2014-02-15,2014-08-16,NA,2014-08-16T13:10,NA,NA,701,84,YEARS,M,WHITE,NOT HISPANIC OR LATINO,Pbo,Placebo,Pbo,Placebo,USA,2014-02-09,-6,Placebo,Placebo,2014-02-15T00:00:00Z,H,2014-08-16T23:59:59Z,H,2014-02-15,2014-08-16,183,NA,2014-08-16,COMPLETED,NA,NA,NA,NA,NA,2014-08-16,Y,White,>64,"NA",NA,NA,NA,NA
RS,CDISCPILOT01,01-701-1130,3,WEEK 6,OVRLRESP,Overall Response,SD,SD,INVESTIGATOR,NA,NA,2014-03-29,6,2014-02-15,BOR,Best Overall Response by Investigator (confirmation not required),Tumor Response,Investigator,RECIST 1.1,2014-03-29,NA,WEEK 6,SD,3,Y,Y,2,1130,2014-02-15,2014-08-16,2014-02-15,2014-08-16,NA,2014-08-16T13:10,NA,NA,701,84,YEARS,M,WHITE,NOT HISPANIC OR LATINO,Pbo,Placebo,Pbo,Placebo,USA,2014-02-09,-6,Placebo,Placebo,2014-02-15T00:00:00Z,H,2014-08-16T23:59:59Z,H,2014-02-15,2014-08-16,183,NA,2014-08-16,COMPLETED,NA,NA,NA,NA,NA,2014-08-16,Y,White,>64,"NA",NA,NA,NA,NA
RS,CDISCPILOT01,01-701-1130,3,WEEK 6,OVRLRESP,Overall Response,SD,SD,INVESTIGATOR,NA,NA,2014-03-29,6,2014-02-15,CB,Clinical Benefit by Investigator (confirmation for response not required),Tumor Response,Investigator,RECIST 1.1,2014-03-29,NA,WEEK 6,Y,1,Y,Y,3,1130,2014-02-15,2014-08-16,2014-02-15,2014-08-16,NA,2014-08-16T13:10,NA,NA,701,84,YEARS,M,WHITE,NOT HISPANIC OR LATINO,Pbo,Placebo,Pbo,Placebo,USA,2014-02-09,-6,Placebo,Placebo,2014-02-15T00:00:00Z,H,2014-08-16T23:59:59Z,H,2014-02-15,2014-08-16,183,NA,2014-08-16,COMPLETED,NA,NA,NA,NA,NA,2014-08-16,Y,White,>64,"NA",NA,NA,NA,NA
NA,CDISCPILOT01,01-701-1130,NA,NA,NA,NA,NA,NA,NA,NA,NA,NA,NA,2014-02-15,CBCP,Best Confirmed Overall Response of CR/PR by Investigator,Tumor Response,Investigator,RECIST 1.1,NA,NA,NA,N,0,Y,NA,4,1130,2014-02-15,2014-08-16,2014-02-15,2014-08-16,NA,2014-08-16T13:10,NA,NA,701,84,YEARS,M,WHITE,NOT HISPANIC OR LATINO,Pbo,Placebo,Pbo,Placebo,USA,2014-02-09,-6,Placebo,Placebo,2014-02-15T00:00:00Z,H,2014-08-16T23:59:59Z,H,2014-02-15,2014-08-16,183,NA,2014-08-16,COMPLETED,NA,NA,NA,NA,NA,2014-08-16,Y,White,>64,"NA",NA,NA,NA,NA
RS,CDISCPILOT01,01-701-1130,3,WEEK 6,OVRLRESP,Overall Response,SD,SD,INVESTIGATOR,NA,NA,2014-03-29,6,2014-02-15,CBOR,Best Confirmed Overall Response by Investigator,Tumor Response,Investigator,RECIST 1.1,2014-03-29,NA,WEEK 6,SD,3,Y,Y,5,1130,2014-02-15,2014-08-16,2014-02-15,2014-08-16,NA,2014-08-16T13:10,NA,NA,701,84,YEARS,M,WHITE,NOT HISPANIC OR LATINO,Pbo,Placebo,Pbo,Placebo,USA,2014-02-09,-6,Placebo,Placebo,2014-02-15T00:00:00Z,H,2014-08-16T23:59:59Z,H,2014-02-15,2014-08-16,183,NA,2014-08-16,COMPLETED,NA,NA,NA,NA,NA,2014-08-16,Y,White,>64,"NA",NA,NA,NA,NA
RS,CDISCPILOT01,01-701-1130,3,WEEK 6,OVRLRESP,Overall Response,SD,SD,INVESTIGATOR,NA,NA,2014-03-29,6,2014-02-15,CCB,Confirmed Clinical Benefit by Investigator,Tumor Response,Investigator,RECIST 1.1,2014-03-29,NA,WEEK 6,Y,1,Y,Y,6,1130,2014-02-15,2014-08-16,2014-02-15,2014-08-16,NA,2014-08-16T13:10,NA,NA,701,84,YEARS,M,WHITE,NOT HISPANIC OR LATINO,Pbo,Placebo,Pbo,Placebo,USA,2014-02-09,-6,Placebo,Placebo,2014-02-15T00:00:00Z,H,2014-08-16T23:59:59Z,H,2014-02-15,2014-08-16,183,NA,2014-08-16,COMPLETED,NA,NA,NA,NA,NA,2014-08-16,Y,White,>64,"NA",NA,NA,NA,NA
NA,CDISCPILOT01,01-701-1130,NA,NA,NA,NA,NA,NA,NA,NA,NA,NA,NA,2014-02-15,CRSP,Confirmed Response by Investigator,Tumor Response,Investigator,RECIST 1.1,NA,NA,NA,N,0,Y,NA,7,1130,2014-02-15,2014-08-16,2014-02-15,2014-08-16,NA,2014-08-16T13:10,NA,NA,701,84,YEARS,M,WHITE,NOT HISPANIC OR LATINO,Pbo,Placebo,Pbo,Placebo,USA,2014-02-09,-6,Placebo,Placebo,2014-02-15T00:00:00Z,H,2014-08-16T23:59:59Z,H,2014-02-15,2014-08-16,183,NA,2014-08-16,COMPLETED,NA,NA,NA,NA,NA,2014-08-16,Y,White,>64,"NA",NA,NA,NA,NA
NA,CDISCPILOT01,01-701-1130,NA,NA,NA,NA,NA,NA,NA,NA,NA,NA,NA,2014-02-15,DEATH,Death,Reference Event,NA,NA,NA,NA,NA,N,0,Y,NA,8,1130,2014-02-15,2014-08-16,2014-02-15,2014-08-16,NA,2014-08-16T13:10,NA,NA,701,84,YEARS,M,WHITE,NOT HISPANIC OR LATINO,Pbo,Placebo,Pbo,Placebo,USA,2014-02-09,-6,Placebo,Placebo,2014-02-15T00:00:00Z,H,2014-08-16T23:59:59Z,H,2014-02-15,2014-08-16,183,NA,2014-08-16,COMPLETED,NA,NA,NA,NA,NA,2014-08-16,Y,White,>64,"NA",NA,NA,NA,NA
RS,CDISCPILOT01,01-701-1130,4,WEEK 9,OVRLRESP,Overall Response,PD,PD,INVESTIGATOR,NA,NA,2014-04-19,9,2014-02-15,LSTA,Last Disease Assessment by Investigator,Tumor Response,Investigator,RECIST 1.1,2014-04-19,NA,WEEK 9,PD,5,Y,Y,9,1130,2014-02-15,2014-08-16,2014-02-15,2014-08-16,NA,2014-08-16T13:10,NA,NA,701,84,YEARS,M,WHITE,NOT HISPANIC OR LATINO,Pbo,Placebo,Pbo,Placebo,USA,2014-02-09,-6,Placebo,Placebo,2014-02-15T00:00:00Z,H,2014-08-16T23:59:59Z,H,2014-02-15,2014-08-16,183,NA,2014-08-16,COMPLETED,NA,NA,NA,NA,NA,2014-08-16,Y,White,>64,"NA",NA,NA,NA,NA
NA,CDISCPILOT01,01-701-1130,NA,NA,NA,NA,NA,NA,NA,NA,NA,NA,NA,2014-02-15,MDIS,Measurable Disease at Baseline by Investigator,NA,Investigator,RECIST 1.1,NA,NA,NA,Y,1,Y,NA,10,1130,2014-02-15,2014-08-16,2014-02-15,2014-08-16,NA,2014-08-16T13:10,NA,NA,701,84,YEARS,M,WHITE,NOT HISPANIC OR LATINO,Pbo,Placebo,Pbo,Placebo,USA,2014-02-09,-6,Placebo,Placebo,2014-02-15T00:00:00Z,H,2014-08-16T23:59:59Z,H,2014-02-15,2014-08-16,183,NA,2014-08-16,COMPLETED,NA,NA,NA,NA,NA,2014-08-16,Y,White,>64,"NA",NA,NA,NA,NA
RS,CDISCPILOT01,01-701-1130,2,WEEK 3,OVRLRESP,Overall Response,SD,SD,INVESTIGATOR,NA,NA,2014-03-08,3,2014-02-15,OVR,Overall Response by Investigator,Tumor Response,Investigator,RECIST 1.1,2014-03-08,NA,WEEK 3,SD,3,Y,Y,11,1130,2014-02-15,2014-08-16,2014-02-15,2014-08-16,NA,2014-08-16T13:10,NA,NA,701,84,YEARS,M,WHITE,NOT HISPANIC OR LATINO,Pbo,Placebo,Pbo,Placebo,USA,2014-02-09,-6,Placebo,Placebo,2014-02-15T00:00:00Z,H,2014-08-16T23:59:59Z,H,2014-02-15,2014-08-16,183,NA,2014-08-16,COMPLETED,NA,NA,NA,NA,NA,2014-08-16,Y,White,>64,"NA",NA,NA,NA,NA
RS,CDISCPILOT01,01-701-1130,3,WEEK 6,OVRLRESP,Overall Response,SD,SD,INVESTIGATOR,NA,NA,2014-03-29,6,2014-02-15,OVR,Overall Response by Investigator,Tumor Response,Investigator,RECIST 1.1,2014-03-29,NA,WEEK 6,SD,3,Y,Y,12,1130,2014-02-15,2014-08-16,2014-02-15,2014-08-16,NA,2014-08-16T13:10,NA,NA,701,84,YEARS,M,WHITE,NOT HISPANIC OR LATINO,Pbo,Placebo,Pbo,Placebo,USA,2014-02-09,-6,Placebo,Placebo,2014-02-15T00:00:00Z,H,2014-08-16T23:59:59Z,H,2014-02-15,2014-08-16,183,NA,2014-08-16,COMPLETED,NA,NA,NA,NA,NA,2014-08-16,Y,White,>64,"NA",NA,NA,NA,NA
RS,CDISCPILOT01,01-701-1130,4,WEEK 9,OVRLRESP,Overall Response,PD,PD,INVESTIGATOR,NA,NA,2014-04-19,9,2014-02-15,OVR,Overall Response by Investigator,Tumor Response,Investigator,RECIST 1.1,2014-04-19,NA,WEEK 9,PD,5,Y,Y,13,1130,2014-02-15,2014-08-16,2014-02-15,2014-08-16,NA,2014-08-16T13:10,NA,NA,701,84,YEARS,M,WHITE,NOT HISPANIC OR LATINO,Pbo,Placebo,Pbo,Placebo,USA,2014-02-09,-6,Placebo,Placebo,2014-02-15T00:00:00Z,H,2014-08-16T23:59:59Z,H,2014-02-15,2014-08-16,183,NA,2014-08-16,COMPLETED,NA,NA,NA,NA,NA,2014-08-16,Y,White,>64,"NA",NA,NA,NA,NA
RS,CDISCPILOT01,01-701-1130,4,WEEK 9,OVRLRESP,Overall Response,PD,PD,INVESTIGATOR,NA,NA,2014-04-19,9,2014-02-15,PD,Disease Progression by Investigator,Tumor Response,Investigator,RECIST 1.1,2014-04-19,NA,WEEK 9,Y,1,Y,Y,14,1130,2014-02-15,2014-08-16,2014-02-15,2014-08-16,NA,2014-08-16T13:10,NA,NA,701,84,YEARS,M,WHITE,NOT HISPANIC OR LATINO,Pbo,Placebo,Pbo,Placebo,USA,2014-02-09,-6,Placebo,Placebo,2014-02-15T00:00:00Z,H,2014-08-16T23:59:59Z,H,2014-02-15,2014-08-16,183,NA,2014-08-16,COMPLETED,NA,NA,NA,NA,NA,2014-08-16,Y,White,>64,"NA",NA,NA,NA,NA
NA,CDISCPILOT01,01-701-1130,NA,NA,NA,NA,NA,NA,NA,NA,NA,NA,NA,2014-02-15,RSP,Response by Investigator (confirmation not required),Tumor Response,Investigator,RECIST 1.1,NA,NA,NA,N,0,Y,NA,15,1130,2014-02-15,2014-08-16,2014-02-15,2014-08-16,NA,2014-08-16T13:10,NA,NA,701,84,YEARS,M,WHITE,NOT HISPANIC OR LATINO,Pbo,Placebo,Pbo,Placebo,USA,2014-02-09,-6,Placebo,Placebo,2014-02-15T00:00:00Z,H,2014-08-16T23:59:59Z,H,2014-02-15,2014-08-16,183,NA,2014-08-16,COMPLETED,NA,NA,NA,NA,NA,2014-08-16,Y,White,>64,"NA",NA,NA,NA,NA
RS,CDISCPILOT01,01-701-1133,3,WEEK 6,OVRLRESP,Overall Response,CR,CR,INVESTIGATOR,NA,NA,2012-12-09,6,2012-10-28,BCP,Best Overall Response of CR/PR by Investigator (confirmation not required),Tumor Response,Investigator,RECIST 1.1,2012-12-09,NA,WEEK 6,Y,1,Y,Y,1,1133,2012-10-28,2013-04-29,2012-10-28,2013-04-28,NA,2013-04-29T10:13,NA,NA,701,81,YEARS,F,WHITE,NOT HISPANIC OR LATINO,Xan_Hi,Xanomeline High Dose,Xan_Hi,Xanomeline High Dose,USA,2012-10-23,-5,Xanomeline High Dose,Xanomeline High Dose,2012-10-28T00:00:00Z,H,2013-04-28T23:59:59Z,H,2012-10-28,2013-04-28,183,NA,2013-04-29,COMPLETED,NA,NA,NA,NA,NA,2013-04-29,Y,White,>64,"NA",NA,NA,NA,NA
RS,CDISCPILOT01,01-701-1133,3,WEEK 6,OVRLRESP,Overall Response,CR,CR,INVESTIGATOR,NA,NA,2012-12-09,6,2012-10-28,BOR,Best Overall Response by Investigator (confirmation not required),Tumor Response,Investigator,RECIST 1.1,2012-12-09,NA,WEEK 6,CR,1,Y,Y,2,1133,2012-10-28,2013-04-29,2012-10-28,2013-04-28,NA,2013-04-29T10:13,NA,NA,701,81,YEARS,F,WHITE,NOT HISPANIC OR LATINO,Xan_Hi,Xanomeline High Dose,Xan_Hi,Xanomeline High Dose,USA,2012-10-23,-5,Xanomeline High Dose,Xanomeline High Dose,2012-10-28T00:00:00Z,H,2013-04-28T23:59:59Z,H,2012-10-28,2013-04-28,183,NA,2013-04-29,COMPLETED,NA,NA,NA,NA,NA,2013-04-29,Y,White,>64,"NA",NA,NA,NA,NA
RS,CDISCPILOT01,01-701-1133,2,WEEK 3,OVRLRESP,Overall Response,PR,PR,INVESTIGATOR,NA,NA,2012-11-18,3,2012-10-28,CB,Clinical Benefit by Investigator (confirmation for response not required),Tumor Response,Investigator,RECIST 1.1,2012-11-18,NA,WEEK 3,Y,1,Y,Y,3,1133,2012-10-28,2013-04-29,2012-10-28,2013-04-28,NA,2013-04-29T10:13,NA,NA,701,81,YEARS,F,WHITE,NOT HISPANIC OR LATINO,Xan_Hi,Xanomeline High Dose,Xan_Hi,Xanomeline High Dose,USA,2012-10-23,-5,Xanomeline High Dose,Xanomeline High Dose,2012-10-28T00:00:00Z,H,2013-04-28T23:59:59Z,H,2012-10-28,2013-04-28,183,NA,2013-04-29,COMPLETED,NA,NA,NA,NA,NA,2013-04-29,Y,White,>64,"NA",NA,NA,NA,NA
NA,CDISCPILOT01,01-701-1133,NA,NA,NA,NA,NA,NA,NA,NA,NA,NA,NA,2012-10-28,CBCP,Best Confirmed Overall Response of CR/PR by Investigator,Tumor Response,Investigator,RECIST 1.1,NA,NA,NA,N,0,Y,NA,4,1133,2012-10-28,2013-04-29,2012-10-28,2013-04-28,NA,2013-04-29T10:13,NA,NA,701,81,YEARS,F,WHITE,NOT HISPANIC OR LATINO,Xan_Hi,Xanomeline High Dose,Xan_Hi,Xanomeline High Dose,USA,2012-10-23,-5,Xanomeline High Dose,Xanomeline High Dose,2012-10-28T00:00:00Z,H,2013-04-28T23:59:59Z,H,2012-10-28,2013-04-28,183,NA,2013-04-29,COMPLETED,NA,NA,NA,NA,NA,2013-04-29,Y,White,>64,"NA",NA,NA,NA,NA
RS,CDISCPILOT01,01-701-1133,3,WEEK 6,OVRLRESP,Overall Response,CR,CR,INVESTIGATOR,NA,NA,2012-12-09,6,2012-10-28,CBOR,Best Confirmed Overall Response by Investigator,Tumor Response,Investigator,RECIST 1.1,2012-12-09,NA,WEEK 6,SD,3,Y,Y,5,1133,2012-10-28,2013-04-29,2012-10-28,2013-04-28,NA,2013-04-29T10:13,NA,NA,701,81,YEARS,F,WHITE,NOT HISPANIC OR LATINO,Xan_Hi,Xanomeline High Dose,Xan_Hi,Xanomeline High Dose,USA,2012-10-23,-5,Xanomeline High Dose,Xanomeline High Dose,2012-10-28T00:00:00Z,H,2013-04-28T23:59:59Z,H,2012-10-28,2013-04-28,183,NA,2013-04-29,COMPLETED,NA,NA,NA,NA,NA,2013-04-29,Y,White,>64,"NA",NA,NA,NA,NA
RS,CDISCPILOT01,01-701-1133,3,WEEK 6,OVRLRESP,Overall Response,CR,CR,INVESTIGATOR,NA,NA,2012-12-09,6,2012-10-28,CCB,Confirmed Clinical Benefit by Investigator,Tumor Response,Investigator,RECIST 1.1,2012-12-09,NA,WEEK 6,Y,1,Y,Y,6,1133,2012-10-28,2013-04-29,2012-10-28,2013-04-28,NA,2013-04-29T10:13,NA,NA,701,81,YEARS,F,WHITE,NOT HISPANIC OR LATINO,Xan_Hi,Xanomeline High Dose,Xan_Hi,Xanomeline High Dose,USA,2012-10-23,-5,Xanomeline High Dose,Xanomeline High Dose,2012-10-28T00:00:00Z,H,2013-04-28T23:59:59Z,H,2012-10-28,2013-04-28,183,NA,2013-04-29,COMPLETED,NA,NA,NA,NA,NA,2013-04-29,Y,White,>64,"NA",NA,NA,NA,NA
NA,CDISCPILOT01,01-701-1133,NA,NA,NA,NA,NA,NA,NA,NA,NA,NA,NA,2012-10-28,CRSP,Confirmed Response by Investigator,Tumor Response,Investigator,RECIST 1.1,NA,NA,NA,N,0,Y,NA,7,1133,2012-10-28,2013-04-29,2012-10-28,2013-04-28,NA,2013-04-29T10:13,NA,NA,701,81,YEARS,F,WHITE,NOT HISPANIC OR LATINO,Xan_Hi,Xanomeline High Dose,Xan_Hi,Xanomeline High Dose,USA,2012-10-23,-5,Xanomeline High Dose,Xanomeline High Dose,2012-10-28T00:00:00Z,H,2013-04-28T23:59:59Z,H,2012-10-28,2013-04-28,183,NA,2013-04-29,COMPLETED,NA,NA,NA,NA,NA,2013-04-29,Y,White,>64,"NA",NA,NA,NA,NA
NA,CDISCPILOT01,01-701-1133,NA,NA,NA,NA,NA,NA,NA,NA,NA,NA,NA,2012-10-28,DEATH,Death,Reference Event,NA,NA,NA,NA,NA,N,0,Y,NA,8,1133,2012-10-28,2013-04-29,2012-10-28,2013-04-28,NA,2013-04-29T10:13,NA,NA,701,81,YEARS,F,WHITE,NOT HISPANIC OR LATINO,Xan_Hi,Xanomeline High Dose,Xan_Hi,Xanomeline High Dose,USA,2012-10-23,-5,Xanomeline High Dose,Xanomeline High Dose,2012-10-28T00:00:00Z,H,2013-04-28T23:59:59Z,H,2012-10-28,2013-04-28,183,NA,2013-04-29,COMPLETED,NA,NA,NA,NA,NA,2013-04-29,Y,White,>64,"NA",NA,NA,NA,NA
RS,CDISCPILOT01,01-701-1133,4,WEEK 9,OVRLRESP,Overall Response,PD,PD,INVESTIGATOR,NA,NA,2012-12-30,9,2012-10-28,LSTA,Last Disease Assessment by Investigator,Tumor Response,Investigator,RECIST 1.1,2012-12-30,NA,WEEK 9,PD,5,Y,Y,9,1133,2012-10-28,2013-04-29,2012-10-28,2013-04-28,NA,2013-04-29T10:13,NA,NA,701,81,YEARS,F,WHITE,NOT HISPANIC OR LATINO,Xan_Hi,Xanomeline High Dose,Xan_Hi,Xanomeline High Dose,USA,2012-10-23,-5,Xanomeline High Dose,Xanomeline High Dose,2012-10-28T00:00:00Z,H,2013-04-28T23:59:59Z,H,2012-10-28,2013-04-28,183,NA,2013-04-29,COMPLETED,NA,NA,NA,NA,NA,2013-04-29,Y,White,>64,"NA",NA,NA,NA,NA
NA,CDISCPILOT01,01-701-1133,NA,NA,NA,NA,NA,NA,NA,NA,NA,NA,NA,2012-10-28,MDIS,Measurable Disease at Baseline by Investigator,NA,Investigator,RECIST 1.1,NA,NA,NA,Y,1,Y,NA,10,1133,2012-10-28,2013-04-29,2012-10-28,2013-04-28,NA,2013-04-29T10:13,NA,NA,701,81,YEARS,F,WHITE,NOT HISPANIC OR LATINO,Xan_Hi,Xanomeline High Dose,Xan_Hi,Xanomeline High Dose,USA,2012-10-23,-5,Xanomeline High Dose,Xanomeline High Dose,2012-10-28T00:00:00Z,H,2013-04-28T23:59:59Z,H,2012-10-28,2013-04-28,183,NA,2013-04-29,COMPLETED,NA,NA,NA,NA,NA,2013-04-29,Y,White,>64,"NA",NA,NA,NA,NA
RS,CDISCPILOT01,01-701-1133,2,WEEK 3,OVRLRESP,Overall Response,PR,PR,INVESTIGATOR,NA,NA,2012-11-18,3,2012-10-28,OVR,Overall Response by Investigator,Tumor Response,Investigator,RECIST 1.1,2012-11-18,NA,WEEK 3,PR,2,Y,Y,11,1133,2012-10-28,2013-04-29,2012-10-28,2013-04-28,NA,2013-04-29T10:13,NA,NA,701,81,YEARS,F,WHITE,NOT HISPANIC OR LATINO,Xan_Hi,Xanomeline High Dose,Xan_Hi,Xanomeline High Dose,USA,2012-10-23,-5,Xanomeline High Dose,Xanomeline High Dose,2012-10-28T00:00:00Z,H,2013-04-28T23:59:59Z,H,2012-10-28,2013-04-28,183,NA,2013-04-29,COMPLETED,NA,NA,NA,NA,NA,2013-04-29,Y,White,>64,"NA",NA,NA,NA,NA
RS,CDISCPILOT01,01-701-1133,3,WEEK 6,OVRLRESP,Overall Response,CR,CR,INVESTIGATOR,NA,NA,2012-12-09,6,2012-10-28,OVR,Overall Response by Investigator,Tumor Response,Investigator,RECIST 1.1,2012-12-09,NA,WEEK 6,CR,1,Y,Y,12,1133,2012-10-28,2013-04-29,2012-10-28,2013-04-28,NA,2013-04-29T10:13,NA,NA,701,81,YEARS,F,WHITE,NOT HISPANIC OR LATINO,Xan_Hi,Xanomeline High Dose,Xan_Hi,Xanomeline High Dose,USA,2012-10-23,-5,Xanomeline High Dose,Xanomeline High Dose,2012-10-28T00:00:00Z,H,2013-04-28T23:59:59Z,H,2012-10-28,2013-04-28,183,NA,2013-04-29,COMPLETED,NA,NA,NA,NA,NA,2013-04-29,Y,White,>64,"NA",NA,NA,NA,NA
RS,CDISCPILOT01,01-701-1133,4,WEEK 9,OVRLRESP,Overall Response,PD,PD,INVESTIGATOR,NA,NA,2012-12-30,9,2012-10-28,OVR,Overall Response by Investigator,Tumor Response,Investigator,RECIST 1.1,2012-12-30,NA,WEEK 9,PD,5,Y,Y,13,1133,2012-10-28,2013-04-29,2012-10-28,2013-04-28,NA,2013-04-29T10:13,NA,NA,701,81,YEARS,F,WHITE,NOT HISPANIC OR LATINO,Xan_Hi,Xanomeline High Dose,Xan_Hi,Xanomeline High Dose,USA,2012-10-23,-5,Xanomeline High Dose,Xanomeline High Dose,2012-10-28T00:00:00Z,H,2013-04-28T23:59:59Z,H,2012-10-28,2013-04-28,183,NA,2013-04-29,COMPLETED,NA,NA,NA,NA,NA,2013-04-29,Y,White,>64,"NA",NA,NA,NA,NA
RS,CDISCPILOT01,01-701-1133,4,WEEK 9,OVRLRESP,Overall Response,PD,PD,INVESTIGATOR,NA,NA,2012-12-30,9,2012-10-28,PD,Disease Progression by Investigator,Tumor Response,Investigator,RECIST 1.1,2012-12-30,NA,WEEK 9,Y,1,Y,Y,14,1133,2012-10-28,2013-04-29,2012-10-28,2013-04-28,NA,2013-04-29T10:13,NA,NA,701,81,YEARS,F,WHITE,NOT HISPANIC OR LATINO,Xan_Hi,Xanomeline High Dose,Xan_Hi,Xanomeline High Dose,USA,2012-10-23,-5,Xanomeline High Dose,Xanomeline High Dose,2012-10-28T00:00:00Z,H,2013-04-28T23:59:59Z,H,2012-10-28,2013-04-28,183,NA,2013-04-29,COMPLETED,NA,NA,NA,NA,NA,2013-04-29,Y,White,>64,"NA",NA,NA,NA,NA
RS,CDISCPILOT01,01-701-1133,2,WEEK 3,OVRLRESP,Overall Response,PR,PR,INVESTIGATOR,NA,NA,2012-11-18,3,2012-10-28,RSP,Response by Investigator (confirmation not required),Tumor Response,Investigator,RECIST 1.1,2012-11-18,NA,WEEK 3,Y,1,Y,Y,15,1133,2012-10-28,2013-04-29,2012-10-28,2013-04-28,NA,2013-04-29T10:13,NA,NA,701,81,YEARS,F,WHITE,NOT HISPANIC OR LATINO,Xan_Hi,Xanomeline High Dose,Xan_Hi,Xanomeline High Dose,USA,2012-10-23,-5,Xanomeline High Dose,Xanomeline High Dose,2012-10-28T00:00:00Z,H,2013-04-28T23:59:59Z,H,2012-10-28,2013-04-28,183,NA,2013-04-29,COMPLETED,NA,NA,NA,NA,NA,2013-04-29,Y,White,>64,"NA",NA,NA,NA,NA
NA,CDISCPILOT01,01-701-1145,NA,NA,NA,NA,NA,NA,NA,NA,NA,NA,NA,NA,BCP,Best Overall Response of CR/PR by Investigator (confirmation not required),Tumor Response,Investigator,RECIST 1.1,NA,NA,NA,N,0,Y,NA,1,1145,NA,NA,NA,NA,NA,2013-09-19,NA,NA,701,57,YEARS,F,WHITE,NOT HISPANIC OR LATINO,Scrnfail,Screen Failure,Scrnfail,Screen Failure,USA,2013-09-05,NA,Screen Failure,Screen Failure,NA,NA,NA,NA,NA,NA,NA,2013-09-05,NA,NA,NA,NA,NA,NA,NA,NA,NA,White,18-64,"NA",NA,NA,NA,NA
NA,CDISCPILOT01,01-701-1145,NA,NA,NA,NA,NA,NA,NA,NA,NA,NA,NA,NA,BOR,Best Overall Response by Investigator (confirmation not required),Tumor Response,Investigator,RECIST 1.1,NA,NA,NA,MISSING,7,Y,NA,2,1145,NA,NA,NA,NA,NA,2013-09-19,NA,NA,701,57,YEARS,F,WHITE,NOT HISPANIC OR LATINO,Scrnfail,Screen Failure,Scrnfail,Screen Failure,USA,2013-09-05,NA,Screen Failure,Screen Failure,NA,NA,NA,NA,NA,NA,NA,2013-09-05,NA,NA,NA,NA,NA,NA,NA,NA,NA,White,18-64,"NA",NA,NA,NA,NA
NA,CDISCPILOT01,01-701-1145,NA,NA,NA,NA,NA,NA,NA,NA,NA,NA,NA,NA,CB,Clinical Benefit by Investigator (confirmation for response not required),Tumor Response,Investigator,RECIST 1.1,NA,NA,NA,N,0,Y,NA,3,1145,NA,NA,NA,NA,NA,2013-09-19,NA,NA,701,57,YEARS,F,WHITE,NOT HISPANIC OR LATINO,Scrnfail,Screen Failure,Scrnfail,Screen Failure,USA,2013-09-05,NA,Screen Failure,Screen Failure,NA,NA,NA,NA,NA,NA,NA,2013-09-05,NA,NA,NA,NA,NA,NA,NA,NA,NA,White,18-64,"NA",NA,NA,NA,NA
NA,CDISCPILOT01,01-701-1145,NA,NA,NA,NA,NA,NA,NA,NA,NA,NA,NA,NA,CBCP,Best Confirmed Overall Response of CR/PR by Investigator,Tumor Response,Investigator,RECIST 1.1,NA,NA,NA,N,0,Y,NA,4,1145,NA,NA,NA,NA,NA,2013-09-19,NA,NA,701,57,YEARS,F,WHITE,NOT HISPANIC OR LATINO,Scrnfail,Screen Failure,Scrnfail,Screen Failure,USA,2013-09-05,NA,Screen Failure,Screen Failure,NA,NA,NA,NA,NA,NA,NA,2013-09-05,NA,NA,NA,NA,NA,NA,NA,NA,NA,White,18-64,"NA",NA,NA,NA,NA
NA,CDISCPILOT01,01-701-1145,NA,NA,NA,NA,NA,NA,NA,NA,NA,NA,NA,NA,CBOR,Best Confirmed Overall Response by Investigator,Tumor Response,Investigator,RECIST 1.1,NA,NA,NA,MISSING,7,Y,NA,5,1145,NA,NA,NA,NA,NA,2013-09-19,NA,NA,701,57,YEARS,F,WHITE,NOT HISPANIC OR LATINO,Scrnfail,Screen Failure,Scrnfail,Screen Failure,USA,2013-09-05,NA,Screen Failure,Screen Failure,NA,NA,NA,NA,NA,NA,NA,2013-09-05,NA,NA,NA,NA,NA,NA,NA,NA,NA,White,18-64,"NA",NA,NA,NA,NA
NA,CDISCPILOT01,01-701-1145,NA,NA,NA,NA,NA,NA,NA,NA,NA,NA,NA,NA,CCB,Confirmed Clinical Benefit by Investigator,Tumor Response,Investigator,RECIST 1.1,NA,NA,NA,N,0,Y,NA,6,1145,NA,NA,NA,NA,NA,2013-09-19,NA,NA,701,57,YEARS,F,WHITE,NOT HISPANIC OR LATINO,Scrnfail,Screen Failure,Scrnfail,Screen Failure,USA,2013-09-05,NA,Screen Failure,Screen Failure,NA,NA,NA,NA,NA,NA,NA,2013-09-05,NA,NA,NA,NA,NA,NA,NA,NA,NA,White,18-64,"NA",NA,NA,NA,NA
NA,CDISCPILOT01,01-701-1145,NA,NA,NA,NA,NA,NA,NA,NA,NA,NA,NA,NA,CRSP,Confirmed Response by Investigator,Tumor Response,Investigator,RECIST 1.1,NA,NA,NA,N,0,Y,NA,7,1145,NA,NA,NA,NA,NA,2013-09-19,NA,NA,701,57,YEARS,F,WHITE,NOT HISPANIC OR LATINO,Scrnfail,Screen Failure,Scrnfail,Screen Failure,USA,2013-09-05,NA,Screen Failure,Screen Failure,NA,NA,NA,NA,NA,NA,NA,2013-09-05,NA,NA,NA,NA,NA,NA,NA,NA,NA,White,18-64,"NA",NA,NA,NA,NA
NA,CDISCPILOT01,01-701-1145,NA,NA,NA,NA,NA,NA,NA,NA,NA,NA,NA,NA,DEATH,Death,Reference Event,NA,NA,NA,NA,NA,N,0,Y,NA,8,1145,NA,NA,NA,NA,NA,2013-09-19,NA,NA,701,57,YEARS,F,WHITE,NOT HISPANIC OR LATINO,Scrnfail,Screen Failure,Scrnfail,Screen Failure,USA,2013-09-05,NA,Screen Failure,Screen Failure,NA,NA,NA,NA,NA,NA,NA,2013-09-05,NA,NA,NA,NA,NA,NA,NA,NA,NA,White,18-64,"NA",NA,NA,NA,NA
NA,CDISCPILOT01,01-701-1145,NA,NA,NA,NA,NA,NA,NA,NA,NA,NA,NA,NA,LSTA,Last Disease Assessment by Investigator,Tumor Response,Investigator,RECIST 1.1,NA,NA,NA,NA,NA,Y,NA,9,1145,NA,NA,NA,NA,NA,2013-09-19,NA,NA,701,57,YEARS,F,WHITE,NOT HISPANIC OR LATINO,Scrnfail,Screen Failure,Scrnfail,Screen Failure,USA,2013-09-05,NA,Screen Failure,Screen Failure,NA,NA,NA,NA,NA,NA,NA,2013-09-05,NA,NA,NA,NA,NA,NA,NA,NA,NA,White,18-64,"NA",NA,NA,NA,NA
NA,CDISCPILOT01,01-701-1145,NA,NA,NA,NA,NA,NA,NA,NA,NA,NA,NA,NA,MDIS,Measurable Disease at Baseline by Investigator,NA,Investigator,RECIST 1.1,NA,NA,NA,N,0,Y,NA,10,1145,NA,NA,NA,NA,NA,2013-09-19,NA,NA,701,57,YEARS,F,WHITE,NOT HISPANIC OR LATINO,Scrnfail,Screen Failure,Scrnfail,Screen Failure,USA,2013-09-05,NA,Screen Failure,Screen Failure,NA,NA,NA,NA,NA,NA,NA,2013-09-05,NA,NA,NA,NA,NA,NA,NA,NA,NA,White,18-64,"NA",NA,NA,NA,NA
NA,CDISCPILOT01,01-701-1145,NA,NA,NA,NA,NA,NA,NA,NA,NA,NA,NA,NA,PD,Disease Progression by Investigator,Tumor Response,Investigator,RECIST 1.1,NA,NA,NA,N,0,Y,NA,11,1145,NA,NA,NA,NA,NA,2013-09-19,NA,NA,701,57,YEARS,F,WHITE,NOT HISPANIC OR LATINO,Scrnfail,Screen Failure,Scrnfail,Screen Failure,USA,2013-09-05,NA,Screen Failure,Screen Failure,NA,NA,NA,NA,NA,NA,NA,2013-09-05,NA,NA,NA,NA,NA,NA,NA,NA,NA,White,18-64,"NA",NA,NA,NA,NA
NA,CDISCPILOT01,01-701-1145,NA,NA,NA,NA,NA,NA,NA,NA,NA,NA,NA,NA,RSP,Response by Investigator (confirmation not required),Tumor Response,Investigator,RECIST 1.1,NA,NA,NA,N,0,Y,NA,12,1145,NA,NA,NA,NA,NA,2013-09-19,NA,NA,701,57,YEARS,F,WHITE,NOT HISPANIC OR LATINO,Scrnfail,Screen Failure,Scrnfail,Screen Failure,USA,2013-09-05,NA,Screen Failure,Screen Failure,NA,NA,NA,NA,NA,NA,NA,2013-09-05,NA,NA,NA,NA,NA,NA,NA,NA,NA,White,18-64,"NA",NA,NA,NA,NA
NA,CDISCPILOT01,01-701-1146,NA,NA,NA,NA,NA,NA,NA,NA,NA,NA,NA,2013-05-20,BCP,Best Overall Response of CR/PR by Investigator (confirmation not required),Tumor Response,Investigator,RECIST 1.1,NA,NA,NA,N,0,Y,NA,1,1146,2013-05-20,2013-06-30,2013-05-20,2013-06-26,NA,2013-07-15,NA,NA,701,75,YEARS,F,WHITE,NOT HISPANIC OR LATINO,Xan_Hi,Xanomeline High Dose,Xan_Hi,Xanomeline High Dose,USA,2013-05-07,-13,Xanomeline High Dose,Xanomeline High Dose,2013-05-20T00:00:00Z,H,2013-06-26T23:59:59Z,H,2013-05-20,2013-06-26,38,NA,2013-06-30,DISCONTINUED,NA,NA,NA,NA,NA,2013-06-30,Y,White,>64,"NA",NA,NA,NA,NA
NA,CDISCPILOT01,01-701-1146,NA,NA,NA,NA,NA,NA,NA,NA,NA,NA,NA,2013-05-20,BOR,Best Overall Response by Investigator (confirmation not required),Tumor Response,Investigator,RECIST 1.1,NA,NA,NA,MISSING,7,Y,NA,2,1146,2013-05-20,2013-06-30,2013-05-20,2013-06-26,NA,2013-07-15,NA,NA,701,75,YEARS,F,WHITE,NOT HISPANIC OR LATINO,Xan_Hi,Xanomeline High Dose,Xan_Hi,Xanomeline High Dose,USA,2013-05-07,-13,Xanomeline High Dose,Xanomeline High Dose,2013-05-20T00:00:00Z,H,2013-06-26T23:59:59Z,H,2013-05-20,2013-06-26,38,NA,2013-06-30,DISCONTINUED,NA,NA,NA,NA,NA,2013-06-30,Y,White,>64,"NA",NA,NA,NA,NA
NA,CDISCPILOT01,01-701-1146,NA,NA,NA,NA,NA,NA,NA,NA,NA,NA,NA,2013-05-20,CB,Clinical Benefit by Investigator (confirmation for response not required),Tumor Response,Investigator,RECIST 1.1,NA,NA,NA,N,0,Y,NA,3,1146,2013-05-20,2013-06-30,2013-05-20,2013-06-26,NA,2013-07-15,NA,NA,701,75,YEARS,F,WHITE,NOT HISPANIC OR LATINO,Xan_Hi,Xanomeline High Dose,Xan_Hi,Xanomeline High Dose,USA,2013-05-07,-13,Xanomeline High Dose,Xanomeline High Dose,2013-05-20T00:00:00Z,H,2013-06-26T23:59:59Z,H,2013-05-20,2013-06-26,38,NA,2013-06-30,DISCONTINUED,NA,NA,NA,NA,NA,2013-06-30,Y,White,>64,"NA",NA,NA,NA,NA
NA,CDISCPILOT01,01-701-1146,NA,NA,NA,NA,NA,NA,NA,NA,NA,NA,NA,2013-05-20,CBCP,Best Confirmed Overall Response of CR/PR by Investigator,Tumor Response,Investigator,RECIST 1.1,NA,NA,NA,N,0,Y,NA,4,1146,2013-05-20,2013-06-30,2013-05-20,2013-06-26,NA,2013-07-15,NA,NA,701,75,YEARS,F,WHITE,NOT HISPANIC OR LATINO,Xan_Hi,Xanomeline High Dose,Xan_Hi,Xanomeline High Dose,USA,2013-05-07,-13,Xanomeline High Dose,Xanomeline High Dose,2013-05-20T00:00:00Z,H,2013-06-26T23:59:59Z,H,2013-05-20,2013-06-26,38,NA,2013-06-30,DISCONTINUED,NA,NA,NA,NA,NA,2013-06-30,Y,White,>64,"NA",NA,NA,NA,NA
NA,CDISCPILOT01,01-701-1146,NA,NA,NA,NA,NA,NA,NA,NA,NA,NA,NA,2013-05-20,CBOR,Best Confirmed Overall Response by Investigator,Tumor Response,Investigator,RECIST 1.1,NA,NA,NA,MISSING,7,Y,NA,5,1146,2013-05-20,2013-06-30,2013-05-20,2013-06-26,NA,2013-07-15,NA,NA,701,75,YEARS,F,WHITE,NOT HISPANIC OR LATINO,Xan_Hi,Xanomeline High Dose,Xan_Hi,Xanomeline High Dose,USA,2013-05-07,-13,Xanomeline High Dose,Xanomeline High Dose,2013-05-20T00:00:00Z,H,2013-06-26T23:59:59Z,H,2013-05-20,2013-06-26,38,NA,2013-06-30,DISCONTINUED,NA,NA,NA,NA,NA,2013-06-30,Y,White,>64,"NA",NA,NA,NA,NA
NA,CDISCPILOT01,01-701-1146,NA,NA,NA,NA,NA,NA,NA,NA,NA,NA,NA,2013-05-20,CCB,Confirmed Clinical Benefit by Investigator,Tumor Response,Investigator,RECIST 1.1,NA,NA,NA,N,0,Y,NA,6,1146,2013-05-20,2013-06-30,2013-05-20,2013-06-26,NA,2013-07-15,NA,NA,701,75,YEARS,F,WHITE,NOT HISPANIC OR LATINO,Xan_Hi,Xanomeline High Dose,Xan_Hi,Xanomeline High Dose,USA,2013-05-07,-13,Xanomeline High Dose,Xanomeline High Dose,2013-05-20T00:00:00Z,H,2013-06-26T23:59:59Z,H,2013-05-20,2013-06-26,38,NA,2013-06-30,DISCONTINUED,NA,NA,NA,NA,NA,2013-06-30,Y,White,>64,"NA",NA,NA,NA,NA
NA,CDISCPILOT01,01-701-1146,NA,NA,NA,NA,NA,NA,NA,NA,NA,NA,NA,2013-05-20,CRSP,Confirmed Response by Investigator,Tumor Response,Investigator,RECIST 1.1,NA,NA,NA,N,0,Y,NA,7,1146,2013-05-20,2013-06-30,2013-05-20,2013-06-26,NA,2013-07-15,NA,NA,701,75,YEARS,F,WHITE,NOT HISPANIC OR LATINO,Xan_Hi,Xanomeline High Dose,Xan_Hi,Xanomeline High Dose,USA,2013-05-07,-13,Xanomeline High Dose,Xanomeline High Dose,2013-05-20T00:00:00Z,H,2013-06-26T23:59:59Z,H,2013-05-20,2013-06-26,38,NA,2013-06-30,DISCONTINUED,NA,NA,NA,NA,NA,2013-06-30,Y,White,>64,"NA",NA,NA,NA,NA
NA,CDISCPILOT01,01-701-1146,NA,NA,NA,NA,NA,NA,NA,NA,NA,NA,NA,2013-05-20,DEATH,Death,Reference Event,NA,NA,NA,NA,NA,N,0,Y,NA,8,1146,2013-05-20,2013-06-30,2013-05-20,2013-06-26,NA,2013-07-15,NA,NA,701,75,YEARS,F,WHITE,NOT HISPANIC OR LATINO,Xan_Hi,Xanomeline High Dose,Xan_Hi,Xanomeline High Dose,USA,2013-05-07,-13,Xanomeline High Dose,Xanomeline High Dose,2013-05-20T00:00:00Z,H,2013-06-26T23:59:59Z,H,2013-05-20,2013-06-26,38,NA,2013-06-30,DISCONTINUED,NA,NA,NA,NA,NA,2013-06-30,Y,White,>64,"NA",NA,NA,NA,NA
NA,CDISCPILOT01,01-701-1146,NA,NA,NA,NA,NA,NA,NA,NA,NA,NA,NA,2013-05-20,LSTA,Last Disease Assessment by Investigator,Tumor Response,Investigator,RECIST 1.1,NA,NA,NA,NA,NA,Y,NA,9,1146,2013-05-20,2013-06-30,2013-05-20,2013-06-26,NA,2013-07-15,NA,NA,701,75,YEARS,F,WHITE,NOT HISPANIC OR LATINO,Xan_Hi,Xanomeline High Dose,Xan_Hi,Xanomeline High Dose,USA,2013-05-07,-13,Xanomeline High Dose,Xanomeline High Dose,2013-05-20T00:00:00Z,H,2013-06-26T23:59:59Z,H,2013-05-20,2013-06-26,38,NA,2013-06-30,DISCONTINUED,NA,NA,NA,NA,NA,2013-06-30,Y,White,>64,"NA",NA,NA,NA,NA
NA,CDISCPILOT01,01-701-1146,NA,NA,NA,NA,NA,NA,NA,NA,NA,NA,NA,2013-05-20,MDIS,Measurable Disease at Baseline by Investigator,NA,Investigator,RECIST 1.1,NA,NA,NA,N,0,Y,NA,10,1146,2013-05-20,2013-06-30,2013-05-20,2013-06-26,NA,2013-07-15,NA,NA,701,75,YEARS,F,WHITE,NOT HISPANIC OR LATINO,Xan_Hi,Xanomeline High Dose,Xan_Hi,Xanomeline High Dose,USA,2013-05-07,-13,Xanomeline High Dose,Xanomeline High Dose,2013-05-20T00:00:00Z,H,2013-06-26T23:59:59Z,H,2013-05-20,2013-06-26,38,NA,2013-06-30,DISCONTINUED,NA,NA,NA,NA,NA,2013-06-30,Y,White,>64,"NA",NA,NA,NA,NA
NA,CDISCPILOT01,01-701-1146,NA,NA,NA,NA,NA,NA,NA,NA,NA,NA,NA,2013-05-20,PD,Disease Progression by Investigator,Tumor Response,Investigator,RECIST 1.1,NA,NA,NA,N,0,Y,NA,11,1146,2013-05-20,2013-06-30,2013-05-20,2013-06-26,NA,2013-07-15,NA,NA,701,75,YEARS,F,WHITE,NOT HISPANIC OR LATINO,Xan_Hi,Xanomeline High Dose,Xan_Hi,Xanomeline High Dose,USA,2013-05-07,-13,Xanomeline High Dose,Xanomeline High Dose,2013-05-20T00:00:00Z,H,2013-06-26T23:59:59Z,H,2013-05-20,2013-06-26,38,NA,2013-06-30,DISCONTINUED,NA,NA,NA,NA,NA,2013-06-30,Y,White,>64,"NA",NA,NA,NA,NA
NA,CDISCPILOT01,01-701-1146,NA,NA,NA,NA,NA,NA,NA,NA,NA,NA,NA,2013-05-20,RSP,Response by Investigator (confirmation not required),Tumor Response,Investigator,RECIST 1.1,NA,NA,NA,N,0,Y,NA,12,1146,2013-05-20,2013-06-30,2013-05-20,2013-06-26,NA,2013-07-15,NA,NA,701,75,YEARS,F,WHITE,NOT HISPANIC OR LATINO,Xan_Hi,Xanomeline High Dose,Xan_Hi,Xanomeline High Dose,USA,2013-05-07,-13,Xanomeline High Dose,Xanomeline High Dose,2013-05-20T00:00:00Z,H,2013-06-26T23:59:59Z,H,2013-05-20,2013-06-26,38,NA,2013-06-30,DISCONTINUED,NA,NA,NA,NA,NA,2013-06-30,Y,White,>64,"NA",NA,NA,NA,NA
NA,CDISCPILOT01,01-701-1148,NA,NA,NA,NA,NA,NA,NA,NA,NA,NA,NA,2013-08-23,BCP,Best Overall Response of CR/PR by Investigator (confirmation not required),Tumor Response,Investigator,RECIST 1.1,NA,NA,NA,N,0,Y,NA,1,1148,2013-08-23,2014-02-20,2013-08-23,2014-02-20,NA,2014-02-20T15:07,NA,NA,701,57,YEARS,M,WHITE,NOT HISPANIC OR LATINO,Xan_Hi,Xanomeline High Dose,Xan_Hi,Xanomeline High Dose,USA,2013-08-14,-9,Xanomeline High Dose,Xanomeline High Dose,2013-08-23T00:00:00Z,H,2014-02-20T23:59:59Z,H,2013-08-23,2014-02-20,182,NA,2014-02-20,COMPLETED,NA,NA,NA,NA,NA,2014-02-20,Y,White,18-64,"NA",NA,NA,NA,NA
NA,CDISCPILOT01,01-701-1148,NA,NA,NA,NA,NA,NA,NA,NA,NA,NA,NA,2013-08-23,BOR,Best Overall Response by Investigator (confirmation not required),Tumor Response,Investigator,RECIST 1.1,NA,NA,NA,MISSING,7,Y,NA,2,1148,2013-08-23,2014-02-20,2013-08-23,2014-02-20,NA,2014-02-20T15:07,NA,NA,701,57,YEARS,M,WHITE,NOT HISPANIC OR LATINO,Xan_Hi,Xanomeline High Dose,Xan_Hi,Xanomeline High Dose,USA,2013-08-14,-9,Xanomeline High Dose,Xanomeline High Dose,2013-08-23T00:00:00Z,H,2014-02-20T23:59:59Z,H,2013-08-23,2014-02-20,182,NA,2014-02-20,COMPLETED,NA,NA,NA,NA,NA,2014-02-20,Y,White,18-64,"NA",NA,NA,NA,NA
NA,CDISCPILOT01,01-701-1148,NA,NA,NA,NA,NA,NA,NA,NA,NA,NA,NA,2013-08-23,CB,Clinical Benefit by Investigator (confirmation for response not required),Tumor Response,Investigator,RECIST 1.1,NA,NA,NA,N,0,Y,NA,3,1148,2013-08-23,2014-02-20,2013-08-23,2014-02-20,NA,2014-02-20T15:07,NA,NA,701,57,YEARS,M,WHITE,NOT HISPANIC OR LATINO,Xan_Hi,Xanomeline High Dose,Xan_Hi,Xanomeline High Dose,USA,2013-08-14,-9,Xanomeline High Dose,Xanomeline High Dose,2013-08-23T00:00:00Z,H,2014-02-20T23:59:59Z,H,2013-08-23,2014-02-20,182,NA,2014-02-20,COMPLETED,NA,NA,NA,NA,NA,2014-02-20,Y,White,18-64,"NA",NA,NA,NA,NA
NA,CDISCPILOT01,01-701-1148,NA,NA,NA,NA,NA,NA,NA,NA,NA,NA,NA,2013-08-23,CBCP,Best Confirmed Overall Response of CR/PR by Investigator,Tumor Response,Investigator,RECIST 1.1,NA,NA,NA,N,0,Y,NA,4,1148,2013-08-23,2014-02-20,2013-08-23,2014-02-20,NA,2014-02-20T15:07,NA,NA,701,57,YEARS,M,WHITE,NOT HISPANIC OR LATINO,Xan_Hi,Xanomeline High Dose,Xan_Hi,Xanomeline High Dose,USA,2013-08-14,-9,Xanomeline High Dose,Xanomeline High Dose,2013-08-23T00:00:00Z,H,2014-02-20T23:59:59Z,H,2013-08-23,2014-02-20,182,NA,2014-02-20,COMPLETED,NA,NA,NA,NA,NA,2014-02-20,Y,White,18-64,"NA",NA,NA,NA,NA
NA,CDISCPILOT01,01-701-1148,NA,NA,NA,NA,NA,NA,NA,NA,NA,NA,NA,2013-08-23,CBOR,Best Confirmed Overall Response by Investigator,Tumor Response,Investigator,RECIST 1.1,NA,NA,NA,MISSING,7,Y,NA,5,1148,2013-08-23,2014-02-20,2013-08-23,2014-02-20,NA,2014-02-20T15:07,NA,NA,701,57,YEARS,M,WHITE,NOT HISPANIC OR LATINO,Xan_Hi,Xanomeline High Dose,Xan_Hi,Xanomeline High Dose,USA,2013-08-14,-9,Xanomeline High Dose,Xanomeline High Dose,2013-08-23T00:00:00Z,H,2014-02-20T23:59:59Z,H,2013-08-23,2014-02-20,182,NA,2014-02-20,COMPLETED,NA,NA,NA,NA,NA,2014-02-20,Y,White,18-64,"NA",NA,NA,NA,NA
NA,CDISCPILOT01,01-701-1148,NA,NA,NA,NA,NA,NA,NA,NA,NA,NA,NA,2013-08-23,CCB,Confirmed Clinical Benefit by Investigator,Tumor Response,Investigator,RECIST 1.1,NA,NA,NA,N,0,Y,NA,6,1148,2013-08-23,2014-02-20,2013-08-23,2014-02-20,NA,2014-02-20T15:07,NA,NA,701,57,YEARS,M,WHITE,NOT HISPANIC OR LATINO,Xan_Hi,Xanomeline High Dose,Xan_Hi,Xanomeline High Dose,USA,2013-08-14,-9,Xanomeline High Dose,Xanomeline High Dose,2013-08-23T00:00:00Z,H,2014-02-20T23:59:59Z,H,2013-08-23,2014-02-20,182,NA,2014-02-20,COMPLETED,NA,NA,NA,NA,NA,2014-02-20,Y,White,18-64,"NA",NA,NA,NA,NA
NA,CDISCPILOT01,01-701-1148,NA,NA,NA,NA,NA,NA,NA,NA,NA,NA,NA,2013-08-23,CRSP,Confirmed Response by Investigator,Tumor Response,Investigator,RECIST 1.1,NA,NA,NA,N,0,Y,NA,7,1148,2013-08-23,2014-02-20,2013-08-23,2014-02-20,NA,2014-02-20T15:07,NA,NA,701,57,YEARS,M,WHITE,NOT HISPANIC OR LATINO,Xan_Hi,Xanomeline High Dose,Xan_Hi,Xanomeline High Dose,USA,2013-08-14,-9,Xanomeline High Dose,Xanomeline High Dose,2013-08-23T00:00:00Z,H,2014-02-20T23:59:59Z,H,2013-08-23,2014-02-20,182,NA,2014-02-20,COMPLETED,NA,NA,NA,NA,NA,2014-02-20,Y,White,18-64,"NA",NA,NA,NA,NA
NA,CDISCPILOT01,01-701-1148,NA,NA,NA,NA,NA,NA,NA,NA,NA,NA,NA,2013-08-23,DEATH,Death,Reference Event,NA,NA,NA,NA,NA,N,0,Y,NA,8,1148,2013-08-23,2014-02-20,2013-08-23,2014-02-20,NA,2014-02-20T15:07,NA,NA,701,57,YEARS,M,WHITE,NOT HISPANIC OR LATINO,Xan_Hi,Xanomeline High Dose,Xan_Hi,Xanomeline High Dose,USA,2013-08-14,-9,Xanomeline High Dose,Xanomeline High Dose,2013-08-23T00:00:00Z,H,2014-02-20T23:59:59Z,H,2013-08-23,2014-02-20,182,NA,2014-02-20,COMPLETED,NA,NA,NA,NA,NA,2014-02-20,Y,White,18-64,"NA",NA,NA,NA,NA
NA,CDISCPILOT01,01-701-1148,NA,NA,NA,NA,NA,NA,NA,NA,NA,NA,NA,2013-08-23,LSTA,Last Disease Assessment by Investigator,Tumor Response,Investigator,RECIST 1.1,NA,NA,NA,NA,NA,Y,NA,9,1148,2013-08-23,2014-02-20,2013-08-23,2014-02-20,NA,2014-02-20T15:07,NA,NA,701,57,YEARS,M,WHITE,NOT HISPANIC OR LATINO,Xan_Hi,Xanomeline High Dose,Xan_Hi,Xanomeline High Dose,USA,2013-08-14,-9,Xanomeline High Dose,Xanomeline High Dose,2013-08-23T00:00:00Z,H,2014-02-20T23:59:59Z,H,2013-08-23,2014-02-20,182,NA,2014-02-20,COMPLETED,NA,NA,NA,NA,NA,2014-02-20,Y,White,18-64,"NA",NA,NA,NA,NA
NA,CDISCPILOT01,01-701-1148,NA,NA,NA,NA,NA,NA,NA,NA,NA,NA,NA,2013-08-23,MDIS,Measurable Disease at Baseline by Investigator,NA,Investigator,RECIST 1.1,NA,NA,NA,N,0,Y,NA,10,1148,2013-08-23,2014-02-20,2013-08-23,2014-02-20,NA,2014-02-20T15:07,NA,NA,701,57,YEARS,M,WHITE,NOT HISPANIC OR LATINO,Xan_Hi,Xanomeline High Dose,Xan_Hi,Xanomeline High Dose,USA,2013-08-14,-9,Xanomeline High Dose,Xanomeline High Dose,2013-08-23T00:00:00Z,H,2014-02-20T23:59:59Z,H,2013-08-23,2014-02-20,182,NA,2014-02-20,COMPLETED,NA,NA,NA,NA,NA,2014-02-20,Y,White,18-64,"NA",NA,NA,NA,NA
NA,CDISCPILOT01,01-701-1148,NA,NA,NA,NA,NA,NA,NA,NA,NA,NA,NA,2013-08-23,PD,Disease Progression by Investigator,Tumor Response,Investigator,RECIST 1.1,NA,NA,NA,N,0,Y,NA,11,1148,2013-08-23,2014-02-20,2013-08-23,2014-02-20,NA,2014-02-20T15:07,NA,NA,701,57,YEARS,M,WHITE,NOT HISPANIC OR LATINO,Xan_Hi,Xanomeline High Dose,Xan_Hi,Xanomeline High Dose,USA,2013-08-14,-9,Xanomeline High Dose,Xanomeline High Dose,2013-08-23T00:00:00Z,H,2014-02-20T23:59:59Z,H,2013-08-23,2014-02-20,182,NA,2014-02-20,COMPLETED,NA,NA,NA,NA,NA,2014-02-20,Y,White,18-64,"NA",NA,NA,NA,NA
NA,CDISCPILOT01,01-701-1148,NA,NA,NA,NA,NA,NA,NA,NA,NA,NA,NA,2013-08-23,RSP,Response by Investigator (confirmation not required),Tumor Response,Investigator,RECIST 1.1,NA,NA,NA,N,0,Y,NA,12,1148,2013-08-23,2014-02-20,2013-08-23,2014-02-20,NA,2014-02-20T15:07,NA,NA,701,57,YEARS,M,WHITE,NOT HISPANIC OR LATINO,Xan_Hi,Xanomeline High Dose,Xan_Hi,Xanomeline High Dose,USA,2013-08-14,-9,Xanomeline High Dose,Xanomeline High Dose,2013-08-23T00:00:00Z,H,2014-02-20T23:59:59Z,H,2013-08-23,2014-02-20,182,NA,2014-02-20,COMPLETED,NA,NA,NA,NA,NA,2014-02-20,Y,White,18-64,"NA",NA,NA,NA,NA
NA,CDISCPILOT01,01-701-1153,NA,NA,NA,NA,NA,NA,NA,NA,NA,NA,NA,2013-09-23,BCP,Best Overall Response of CR/PR by Investigator (confirmation not required),Tumor Response,Investigator,RECIST 1.1,NA,NA,NA,N,0,Y,NA,1,1153,2013-09-23,2014-04-01,2013-09-23,2014-03-16,NA,2014-04-01T14:25,NA,NA,701,79,YEARS,F,WHITE,NOT HISPANIC OR LATINO,Pbo,Placebo,Pbo,Placebo,USA,2013-09-06,-17,Placebo,Placebo,2013-09-23T00:00:00Z,H,2014-03-16T23:59:59Z,H,2013-09-23,2014-03-16,175,NA,2014-04-01,COMPLETED,NA,NA,NA,NA,NA,2014-04-01,Y,White,>64,"NA",NA,NA,NA,NA
NA,CDISCPILOT01,01-701-1153,NA,NA,NA,NA,NA,NA,NA,NA,NA,NA,NA,2013-09-23,BOR,Best Overall Response by Investigator (confirmation not required),Tumor Response,Investigator,RECIST 1.1,NA,NA,NA,MISSING,7,Y,NA,2,1153,2013-09-23,2014-04-01,2013-09-23,2014-03-16,NA,2014-04-01T14:25,NA,NA,701,79,YEARS,F,WHITE,NOT HISPANIC OR LATINO,Pbo,Placebo,Pbo,Placebo,USA,2013-09-06,-17,Placebo,Placebo,2013-09-23T00:00:00Z,H,2014-03-16T23:59:59Z,H,2013-09-23,2014-03-16,175,NA,2014-04-01,COMPLETED,NA,NA,NA,NA,NA,2014-04-01,Y,White,>64,"NA",NA,NA,NA,NA
NA,CDISCPILOT01,01-701-1153,NA,NA,NA,NA,NA,NA,NA,NA,NA,NA,NA,2013-09-23,CB,Clinical Benefit by Investigator (confirmation for response not required),Tumor Response,Investigator,RECIST 1.1,NA,NA,NA,N,0,Y,NA,3,1153,2013-09-23,2014-04-01,2013-09-23,2014-03-16,NA,2014-04-01T14:25,NA,NA,701,79,YEARS,F,WHITE,NOT HISPANIC OR LATINO,Pbo,Placebo,Pbo,Placebo,USA,2013-09-06,-17,Placebo,Placebo,2013-09-23T00:00:00Z,H,2014-03-16T23:59:59Z,H,2013-09-23,2014-03-16,175,NA,2014-04-01,COMPLETED,NA,NA,NA,NA,NA,2014-04-01,Y,White,>64,"NA",NA,NA,NA,NA
NA,CDISCPILOT01,01-701-1153,NA,NA,NA,NA,NA,NA,NA,NA,NA,NA,NA,2013-09-23,CBCP,Best Confirmed Overall Response of CR/PR by Investigator,Tumor Response,Investigator,RECIST 1.1,NA,NA,NA,N,0,Y,NA,4,1153,2013-09-23,2014-04-01,2013-09-23,2014-03-16,NA,2014-04-01T14:25,NA,NA,701,79,YEARS,F,WHITE,NOT HISPANIC OR LATINO,Pbo,Placebo,Pbo,Placebo,USA,2013-09-06,-17,Placebo,Placebo,2013-09-23T00:00:00Z,H,2014-03-16T23:59:59Z,H,2013-09-23,2014-03-16,175,NA,2014-04-01,COMPLETED,NA,NA,NA,NA,NA,2014-04-01,Y,White,>64,"NA",NA,NA,NA,NA
NA,CDISCPILOT01,01-701-1153,NA,NA,NA,NA,NA,NA,NA,NA,NA,NA,NA,2013-09-23,CBOR,Best Confirmed Overall Response by Investigator,Tumor Response,Investigator,RECIST 1.1,NA,NA,NA,MISSING,7,Y,NA,5,1153,2013-09-23,2014-04-01,2013-09-23,2014-03-16,NA,2014-04-01T14:25,NA,NA,701,79,YEARS,F,WHITE,NOT HISPANIC OR LATINO,Pbo,Placebo,Pbo,Placebo,USA,2013-09-06,-17,Placebo,Placebo,2013-09-23T00:00:00Z,H,2014-03-16T23:59:59Z,H,2013-09-23,2014-03-16,175,NA,2014-04-01,COMPLETED,NA,NA,NA,NA,NA,2014-04-01,Y,White,>64,"NA",NA,NA,NA,NA
NA,CDISCPILOT01,01-701-1153,NA,NA,NA,NA,NA,NA,NA,NA,NA,NA,NA,2013-09-23,CCB,Confirmed Clinical Benefit by Investigator,Tumor Response,Investigator,RECIST 1.1,NA,NA,NA,N,0,Y,NA,6,1153,2013-09-23,2014-04-01,2013-09-23,2014-03-16,NA,2014-04-01T14:25,NA,NA,701,79,YEARS,F,WHITE,NOT HISPANIC OR LATINO,Pbo,Placebo,Pbo,Placebo,USA,2013-09-06,-17,Placebo,Placebo,2013-09-23T00:00:00Z,H,2014-03-16T23:59:59Z,H,2013-09-23,2014-03-16,175,NA,2014-04-01,COMPLETED,NA,NA,NA,NA,NA,2014-04-01,Y,White,>64,"NA",NA,NA,NA,NA
NA,CDISCPILOT01,01-701-1153,NA,NA,NA,NA,NA,NA,NA,NA,NA,NA,NA,2013-09-23,CRSP,Confirmed Response by Investigator,Tumor Response,Investigator,RECIST 1.1,NA,NA,NA,N,0,Y,NA,7,1153,2013-09-23,2014-04-01,2013-09-23,2014-03-16,NA,2014-04-01T14:25,NA,NA,701,79,YEARS,F,WHITE,NOT HISPANIC OR LATINO,Pbo,Placebo,Pbo,Placebo,USA,2013-09-06,-17,Placebo,Placebo,2013-09-23T00:00:00Z,H,2014-03-16T23:59:59Z,H,2013-09-23,2014-03-16,175,NA,2014-04-01,COMPLETED,NA,NA,NA,NA,NA,2014-04-01,Y,White,>64,"NA",NA,NA,NA,NA
NA,CDISCPILOT01,01-701-1153,NA,NA,NA,NA,NA,NA,NA,NA,NA,NA,NA,2013-09-23,DEATH,Death,Reference Event,NA,NA,NA,NA,NA,N,0,Y,NA,8,1153,2013-09-23,2014-04-01,2013-09-23,2014-03-16,NA,2014-04-01T14:25,NA,NA,701,79,YEARS,F,WHITE,NOT HISPANIC OR LATINO,Pbo,Placebo,Pbo,Placebo,USA,2013-09-06,-17,Placebo,Placebo,2013-09-23T00:00:00Z,H,2014-03-16T23:59:59Z,H,2013-09-23,2014-03-16,175,NA,2014-04-01,COMPLETED,NA,NA,NA,NA,NA,2014-04-01,Y,White,>64,"NA",NA,NA,NA,NA
NA,CDISCPILOT01,01-701-1153,NA,NA,NA,NA,NA,NA,NA,NA,NA,NA,NA,2013-09-23,LSTA,Last Disease Assessment by Investigator,Tumor Response,Investigator,RECIST 1.1,NA,NA,NA,NA,NA,Y,NA,9,1153,2013-09-23,2014-04-01,2013-09-23,2014-03-16,NA,2014-04-01T14:25,NA,NA,701,79,YEARS,F,WHITE,NOT HISPANIC OR LATINO,Pbo,Placebo,Pbo,Placebo,USA,2013-09-06,-17,Placebo,Placebo,2013-09-23T00:00:00Z,H,2014-03-16T23:59:59Z,H,2013-09-23,2014-03-16,175,NA,2014-04-01,COMPLETED,NA,NA,NA,NA,NA,2014-04-01,Y,White,>64,"NA",NA,NA,NA,NA
NA,CDISCPILOT01,01-701-1153,NA,NA,NA,NA,NA,NA,NA,NA,NA,NA,NA,2013-09-23,MDIS,Measurable Disease at Baseline by Investigator,NA,Investigator,RECIST 1.1,NA,NA,NA,N,0,Y,NA,10,1153,2013-09-23,2014-04-01,2013-09-23,2014-03-16,NA,2014-04-01T14:25,NA,NA,701,79,YEARS,F,WHITE,NOT HISPANIC OR LATINO,Pbo,Placebo,Pbo,Placebo,USA,2013-09-06,-17,Placebo,Placebo,2013-09-23T00:00:00Z,H,2014-03-16T23:59:59Z,H,2013-09-23,2014-03-16,175,NA,2014-04-01,COMPLETED,NA,NA,NA,NA,NA,2014-04-01,Y,White,>64,"NA",NA,NA,NA,NA
NA,CDISCPILOT01,01-701-1153,NA,NA,NA,NA,NA,NA,NA,NA,NA,NA,NA,2013-09-23,PD,Disease Progression by Investigator,Tumor Response,Investigator,RECIST 1.1,NA,NA,NA,N,0,Y,NA,11,1153,2013-09-23,2014-04-01,2013-09-23,2014-03-16,NA,2014-04-01T14:25,NA,NA,701,79,YEARS,F,WHITE,NOT HISPANIC OR LATINO,Pbo,Placebo,Pbo,Placebo,USA,2013-09-06,-17,Placebo,Placebo,2013-09-23T00:00:00Z,H,2014-03-16T23:59:59Z,H,2013-09-23,2014-03-16,175,NA,2014-04-01,COMPLETED,NA,NA,NA,NA,NA,2014-04-01,Y,White,>64,"NA",NA,NA,NA,NA
NA,CDISCPILOT01,01-701-1153,NA,NA,NA,NA,NA,NA,NA,NA,NA,NA,NA,2013-09-23,RSP,Response by Investigator (confirmation not required),Tumor Response,Investigator,RECIST 1.1,NA,NA,NA,N,0,Y,NA,12,1153,2013-09-23,2014-04-01,2013-09-23,2014-03-16,NA,2014-04-01T14:25,NA,NA,701,79,YEARS,F,WHITE,NOT HISPANIC OR LATINO,Pbo,Placebo,Pbo,Placebo,USA,2013-09-06,-17,Placebo,Placebo,2013-09-23T00:00:00Z,H,2014-03-16T23:59:59Z,H,2013-09-23,2014-03-16,175,NA,2014-04-01,COMPLETED,NA,NA,NA,NA,NA,2014-04-01,Y,White,>64,"NA",NA,NA,NA,NA
NA,CDISCPILOT01,01-701-1162,NA,NA,NA,NA,NA,NA,NA,NA,NA,NA,NA,NA,BCP,Best Overall Response of CR/PR by Investigator (confirmation not required),Tumor Response,Investigator,RECIST 1.1,NA,NA,NA,N,0,Y,NA,1,1162,NA,NA,NA,NA,NA,2013-04-18,NA,NA,701,82,YEARS,F,WHITE,NOT HISPANIC OR LATINO,Scrnfail,Screen Failure,Scrnfail,Screen Failure,USA,2013-04-18,NA,Screen Failure,Screen Failure,NA,NA,NA,NA,NA,NA,NA,2013-04-18,NA,NA,NA,NA,NA,NA,NA,NA,NA,White,>64,"NA",NA,NA,NA,NA
NA,CDISCPILOT01,01-701-1162,NA,NA,NA,NA,NA,NA,NA,NA,NA,NA,NA,NA,BOR,Best Overall Response by Investigator (confirmation not required),Tumor Response,Investigator,RECIST 1.1,NA,NA,NA,MISSING,7,Y,NA,2,1162,NA,NA,NA,NA,NA,2013-04-18,NA,NA,701,82,YEARS,F,WHITE,NOT HISPANIC OR LATINO,Scrnfail,Screen Failure,Scrnfail,Screen Failure,USA,2013-04-18,NA,Screen Failure,Screen Failure,NA,NA,NA,NA,NA,NA,NA,2013-04-18,NA,NA,NA,NA,NA,NA,NA,NA,NA,White,>64,"NA",NA,NA,NA,NA
NA,CDISCPILOT01,01-701-1162,NA,NA,NA,NA,NA,NA,NA,NA,NA,NA,NA,NA,CB,Clinical Benefit by Investigator (confirmation for response not required),Tumor Response,Investigator,RECIST 1.1,NA,NA,NA,N,0,Y,NA,3,1162,NA,NA,NA,NA,NA,2013-04-18,NA,NA,701,82,YEARS,F,WHITE,NOT HISPANIC OR LATINO,Scrnfail,Screen Failure,Scrnfail,Screen Failure,USA,2013-04-18,NA,Screen Failure,Screen Failure,NA,NA,NA,NA,NA,NA,NA,2013-04-18,NA,NA,NA,NA,NA,NA,NA,NA,NA,White,>64,"NA",NA,NA,NA,NA
NA,CDISCPILOT01,01-701-1162,NA,NA,NA,NA,NA,NA,NA,NA,NA,NA,NA,NA,CBCP,Best Confirmed Overall Response of CR/PR by Investigator,Tumor Response,Investigator,RECIST 1.1,NA,NA,NA,N,0,Y,NA,4,1162,NA,NA,NA,NA,NA,2013-04-18,NA,NA,701,82,YEARS,F,WHITE,NOT HISPANIC OR LATINO,Scrnfail,Screen Failure,Scrnfail,Screen Failure,USA,2013-04-18,NA,Screen Failure,Screen Failure,NA,NA,NA,NA,NA,NA,NA,2013-04-18,NA,NA,NA,NA,NA,NA,NA,NA,NA,White,>64,"NA",NA,NA,NA,NA
NA,CDISCPILOT01,01-701-1162,NA,NA,NA,NA,NA,NA,NA,NA,NA,NA,NA,NA,CBOR,Best Confirmed Overall Response by Investigator,Tumor Response,Investigator,RECIST 1.1,NA,NA,NA,MISSING,7,Y,NA,5,1162,NA,NA,NA,NA,NA,2013-04-18,NA,NA,701,82,YEARS,F,WHITE,NOT HISPANIC OR LATINO,Scrnfail,Screen Failure,Scrnfail,Screen Failure,USA,2013-04-18,NA,Screen Failure,Screen Failure,NA,NA,NA,NA,NA,NA,NA,2013-04-18,NA,NA,NA,NA,NA,NA,NA,NA,NA,White,>64,"NA",NA,NA,NA,NA
NA,CDISCPILOT01,01-701-1162,NA,NA,NA,NA,NA,NA,NA,NA,NA,NA,NA,NA,CCB,Confirmed Clinical Benefit by Investigator,Tumor Response,Investigator,RECIST 1.1,NA,NA,NA,N,0,Y,NA,6,1162,NA,NA,NA,NA,NA,2013-04-18,NA,NA,701,82,YEARS,F,WHITE,NOT HISPANIC OR LATINO,Scrnfail,Screen Failure,Scrnfail,Screen Failure,USA,2013-04-18,NA,Screen Failure,Screen Failure,NA,NA,NA,NA,NA,NA,NA,2013-04-18,NA,NA,NA,NA,NA,NA,NA,NA,NA,White,>64,"NA",NA,NA,NA,NA
NA,CDISCPILOT01,01-701-1162,NA,NA,NA,NA,NA,NA,NA,NA,NA,NA,NA,NA,CRSP,Confirmed Response by Investigator,Tumor Response,Investigator,RECIST 1.1,NA,NA,NA,N,0,Y,NA,7,1162,NA,NA,NA,NA,NA,2013-04-18,NA,NA,701,82,YEARS,F,WHITE,NOT HISPANIC OR LATINO,Scrnfail,Screen Failure,Scrnfail,Screen Failure,USA,2013-04-18,NA,Screen Failure,Screen Failure,NA,NA,NA,NA,NA,NA,NA,2013-04-18,NA,NA,NA,NA,NA,NA,NA,NA,NA,White,>64,"NA",NA,NA,NA,NA
NA,CDISCPILOT01,01-701-1162,NA,NA,NA,NA,NA,NA,NA,NA,NA,NA,NA,NA,DEATH,Death,Reference Event,NA,NA,NA,NA,NA,N,0,Y,NA,8,1162,NA,NA,NA,NA,NA,2013-04-18,NA,NA,701,82,YEARS,F,WHITE,NOT HISPANIC OR LATINO,Scrnfail,Screen Failure,Scrnfail,Screen Failure,USA,2013-04-18,NA,Screen Failure,Screen Failure,NA,NA,NA,NA,NA,NA,NA,2013-04-18,NA,NA,NA,NA,NA,NA,NA,NA,NA,White,>64,"NA",NA,NA,NA,NA
NA,CDISCPILOT01,01-701-1162,NA,NA,NA,NA,NA,NA,NA,NA,NA,NA,NA,NA,LSTA,Last Disease Assessment by Investigator,Tumor Response,Investigator,RECIST 1.1,NA,NA,NA,NA,NA,Y,NA,9,1162,NA,NA,NA,NA,NA,2013-04-18,NA,NA,701,82,YEARS,F,WHITE,NOT HISPANIC OR LATINO,Scrnfail,Screen Failure,Scrnfail,Screen Failure,USA,2013-04-18,NA,Screen Failure,Screen Failure,NA,NA,NA,NA,NA,NA,NA,2013-04-18,NA,NA,NA,NA,NA,NA,NA,NA,NA,White,>64,"NA",NA,NA,NA,NA
NA,CDISCPILOT01,01-701-1162,NA,NA,NA,NA,NA,NA,NA,NA,NA,NA,NA,NA,MDIS,Measurable Disease at Baseline by Investigator,NA,Investigator,RECIST 1.1,NA,NA,NA,N,0,Y,NA,10,1162,NA,NA,NA,NA,NA,2013-04-18,NA,NA,701,82,YEARS,F,WHITE,NOT HISPANIC OR LATINO,Scrnfail,Screen Failure,Scrnfail,Screen Failure,USA,2013-04-18,NA,Screen Failure,Screen Failure,NA,NA,NA,NA,NA,NA,NA,2013-04-18,NA,NA,NA,NA,NA,NA,NA,NA,NA,White,>64,"NA",NA,NA,NA,NA
NA,CDISCPILOT01,01-701-1162,NA,NA,NA,NA,NA,NA,NA,NA,NA,NA,NA,NA,PD,Disease Progression by Investigator,Tumor Response,Investigator,RECIST 1.1,NA,NA,NA,N,0,Y,NA,11,1162,NA,NA,NA,NA,NA,2013-04-18,NA,NA,701,82,YEARS,F,WHITE,NOT HISPANIC OR LATINO,Scrnfail,Screen Failure,Scrnfail,Screen Failure,USA,2013-04-18,NA,Screen Failure,Screen Failure,NA,NA,NA,NA,NA,NA,NA,2013-04-18,NA,NA,NA,NA,NA,NA,NA,NA,NA,White,>64,"NA",NA,NA,NA,NA
NA,CDISCPILOT01,01-701-1162,NA,NA,NA,NA,NA,NA,NA,NA,NA,NA,NA,NA,RSP,Response by Investigator (confirmation not required),Tumor Response,Investigator,RECIST 1.1,NA,NA,NA,N,0,Y,NA,12,1162,NA,NA,NA,NA,NA,2013-04-18,NA,NA,701,82,YEARS,F,WHITE,NOT HISPANIC OR LATINO,Scrnfail,Screen Failure,Scrnfail,Screen Failure,USA,2013-04-18,NA,Screen Failure,Screen Failure,NA,NA,NA,NA,NA,NA,NA,2013-04-18,NA,NA,NA,NA,NA,NA,NA,NA,NA,White,>64,"NA",NA,NA,NA,NA
NA,CDISCPILOT01,01-701-1176,NA,NA,NA,NA,NA,NA,NA,NA,NA,NA,NA,NA,BCP,Best Overall Response of CR/PR by Investigator (confirmation not required),Tumor Response,Investigator,RECIST 1.1,NA,NA,NA,N,0,Y,NA,1,1176,NA,NA,NA,NA,NA,2012-09-30,NA,NA,701,62,YEARS,F,AMERICAN INDIAN OR ALASKA NATIVE,NOT HISPANIC OR LATINO,Scrnfail,Screen Failure,Scrnfail,Screen Failure,USA,2012-09-30,NA,Screen Failure,Screen Failure,NA,NA,NA,NA,NA,NA,NA,2012-09-30,NA,NA,NA,NA,NA,NA,NA,NA,NA,Non-white,18-64,"NA",NA,NA,NA,NA
NA,CDISCPILOT01,01-701-1176,NA,NA,NA,NA,NA,NA,NA,NA,NA,NA,NA,NA,BOR,Best Overall Response by Investigator (confirmation not required),Tumor Response,Investigator,RECIST 1.1,NA,NA,NA,MISSING,7,Y,NA,2,1176,NA,NA,NA,NA,NA,2012-09-30,NA,NA,701,62,YEARS,F,AMERICAN INDIAN OR ALASKA NATIVE,NOT HISPANIC OR LATINO,Scrnfail,Screen Failure,Scrnfail,Screen Failure,USA,2012-09-30,NA,Screen Failure,Screen Failure,NA,NA,NA,NA,NA,NA,NA,2012-09-30,NA,NA,NA,NA,NA,NA,NA,NA,NA,Non-white,18-64,"NA",NA,NA,NA,NA
NA,CDISCPILOT01,01-701-1176,NA,NA,NA,NA,NA,NA,NA,NA,NA,NA,NA,NA,CB,Clinical Benefit by Investigator (confirmation for response not required),Tumor Response,Investigator,RECIST 1.1,NA,NA,NA,N,0,Y,NA,3,1176,NA,NA,NA,NA,NA,2012-09-30,NA,NA,701,62,YEARS,F,AMERICAN INDIAN OR ALASKA NATIVE,NOT HISPANIC OR LATINO,Scrnfail,Screen Failure,Scrnfail,Screen Failure,USA,2012-09-30,NA,Screen Failure,Screen Failure,NA,NA,NA,NA,NA,NA,NA,2012-09-30,NA,NA,NA,NA,NA,NA,NA,NA,NA,Non-white,18-64,"NA",NA,NA,NA,NA
NA,CDISCPILOT01,01-701-1176,NA,NA,NA,NA,NA,NA,NA,NA,NA,NA,NA,NA,CBCP,Best Confirmed Overall Response of CR/PR by Investigator,Tumor Response,Investigator,RECIST 1.1,NA,NA,NA,N,0,Y,NA,4,1176,NA,NA,NA,NA,NA,2012-09-30,NA,NA,701,62,YEARS,F,AMERICAN INDIAN OR ALASKA NATIVE,NOT HISPANIC OR LATINO,Scrnfail,Screen Failure,Scrnfail,Screen Failure,USA,2012-09-30,NA,Screen Failure,Screen Failure,NA,NA,NA,NA,NA,NA,NA,2012-09-30,NA,NA,NA,NA,NA,NA,NA,NA,NA,Non-white,18-64,"NA",NA,NA,NA,NA
NA,CDISCPILOT01,01-701-1176,NA,NA,NA,NA,NA,NA,NA,NA,NA,NA,NA,NA,CBOR,Best Confirmed Overall Response by Investigator,Tumor Response,Investigator,RECIST 1.1,NA,NA,NA,MISSING,7,Y,NA,5,1176,NA,NA,NA,NA,NA,2012-09-30,NA,NA,701,62,YEARS,F,AMERICAN INDIAN OR ALASKA NATIVE,NOT HISPANIC OR LATINO,Scrnfail,Screen Failure,Scrnfail,Screen Failure,USA,2012-09-30,NA,Screen Failure,Screen Failure,NA,NA,NA,NA,NA,NA,NA,2012-09-30,NA,NA,NA,NA,NA,NA,NA,NA,NA,Non-white,18-64,"NA",NA,NA,NA,NA
NA,CDISCPILOT01,01-701-1176,NA,NA,NA,NA,NA,NA,NA,NA,NA,NA,NA,NA,CCB,Confirmed Clinical Benefit by Investigator,Tumor Response,Investigator,RECIST 1.1,NA,NA,NA,N,0,Y,NA,6,1176,NA,NA,NA,NA,NA,2012-09-30,NA,NA,701,62,YEARS,F,AMERICAN INDIAN OR ALASKA NATIVE,NOT HISPANIC OR LATINO,Scrnfail,Screen Failure,Scrnfail,Screen Failure,USA,2012-09-30,NA,Screen Failure,Screen Failure,NA,NA,NA,NA,NA,NA,NA,2012-09-30,NA,NA,NA,NA,NA,NA,NA,NA,NA,Non-white,18-64,"NA",NA,NA,NA,NA
NA,CDISCPILOT01,01-701-1176,NA,NA,NA,NA,NA,NA,NA,NA,NA,NA,NA,NA,CRSP,Confirmed Response by Investigator,Tumor Response,Investigator,RECIST 1.1,NA,NA,NA,N,0,Y,NA,7,1176,NA,NA,NA,NA,NA,2012-09-30,NA,NA,701,62,YEARS,F,AMERICAN INDIAN OR ALASKA NATIVE,NOT HISPANIC OR LATINO,Scrnfail,Screen Failure,Scrnfail,Screen Failure,USA,2012-09-30,NA,Screen Failure,Screen Failure,NA,NA,NA,NA,NA,NA,NA,2012-09-30,NA,NA,NA,NA,NA,NA,NA,NA,NA,Non-white,18-64,"NA",NA,NA,NA,NA
NA,CDISCPILOT01,01-701-1176,NA,NA,NA,NA,NA,NA,NA,NA,NA,NA,NA,NA,DEATH,Death,Reference Event,NA,NA,NA,NA,NA,N,0,Y,NA,8,1176,NA,NA,NA,NA,NA,2012-09-30,NA,NA,701,62,YEARS,F,AMERICAN INDIAN OR ALASKA NATIVE,NOT HISPANIC OR LATINO,Scrnfail,Screen Failure,Scrnfail,Screen Failure,USA,2012-09-30,NA,Screen Failure,Screen Failure,NA,NA,NA,NA,NA,NA,NA,2012-09-30,NA,NA,NA,NA,NA,NA,NA,NA,NA,Non-white,18-64,"NA",NA,NA,NA,NA
NA,CDISCPILOT01,01-701-1176,NA,NA,NA,NA,NA,NA,NA,NA,NA,NA,NA,NA,LSTA,Last Disease Assessment by Investigator,Tumor Response,Investigator,RECIST 1.1,NA,NA,NA,NA,NA,Y,NA,9,1176,NA,NA,NA,NA,NA,2012-09-30,NA,NA,701,62,YEARS,F,AMERICAN INDIAN OR ALASKA NATIVE,NOT HISPANIC OR LATINO,Scrnfail,Screen Failure,Scrnfail,Screen Failure,USA,2012-09-30,NA,Screen Failure,Screen Failure,NA,NA,NA,NA,NA,NA,NA,2012-09-30,NA,NA,NA,NA,NA,NA,NA,NA,NA,Non-white,18-64,"NA",NA,NA,NA,NA
NA,CDISCPILOT01,01-701-1176,NA,NA,NA,NA,NA,NA,NA,NA,NA,NA,NA,NA,MDIS,Measurable Disease at Baseline by Investigator,NA,Investigator,RECIST 1.1,NA,NA,NA,N,0,Y,NA,10,1176,NA,NA,NA,NA,NA,2012-09-30,NA,NA,701,62,YEARS,F,AMERICAN INDIAN OR ALASKA NATIVE,NOT HISPANIC OR LATINO,Scrnfail,Screen Failure,Scrnfail,Screen Failure,USA,2012-09-30,NA,Screen Failure,Screen Failure,NA,NA,NA,NA,NA,NA,NA,2012-09-30,NA,NA,NA,NA,NA,NA,NA,NA,NA,Non-white,18-64,"NA",NA,NA,NA,NA
NA,CDISCPILOT01,01-701-1176,NA,NA,NA,NA,NA,NA,NA,NA,NA,NA,NA,NA,PD,Disease Progression by Investigator,Tumor Response,Investigator,RECIST 1.1,NA,NA,NA,N,0,Y,NA,11,1176,NA,NA,NA,NA,NA,2012-09-30,NA,NA,701,62,YEARS,F,AMERICAN INDIAN OR ALASKA NATIVE,NOT HISPANIC OR LATINO,Scrnfail,Screen Failure,Scrnfail,Screen Failure,USA,2012-09-30,NA,Screen Failure,Screen Failure,NA,NA,NA,NA,NA,NA,NA,2012-09-30,NA,NA,NA,NA,NA,NA,NA,NA,NA,Non-white,18-64,"NA",NA,NA,NA,NA
NA,CDISCPILOT01,01-701-1176,NA,NA,NA,NA,NA,NA,NA,NA,NA,NA,NA,NA,RSP,Response by Investigator (confirmation not required),Tumor Response,Investigator,RECIST 1.1,NA,NA,NA,N,0,Y,NA,12,1176,NA,NA,NA,NA,NA,2012-09-30,NA,NA,701,62,YEARS,F,AMERICAN INDIAN OR ALASKA NATIVE,NOT HISPANIC OR LATINO,Scrnfail,Screen Failure,Scrnfail,Screen Failure,USA,2012-09-30,NA,Screen Failure,Screen Failure,NA,NA,NA,NA,NA,NA,NA,2012-09-30,NA,NA,NA,NA,NA,NA,NA,NA,NA,Non-white,18-64,"NA",NA,NA,NA,NA
NA,CDISCPILOT01,01-701-1180,NA,NA,NA,NA,NA,NA,NA,NA,NA,NA,NA,2013-02-12,BCP,Best Overall Response of CR/PR by Investigator (confirmation not required),Tumor Response,Investigator,RECIST 1.1,NA,NA,NA,N,0,Y,NA,1,1180,2013-02-12,2013-03-23,2013-02-12,2013-03-18,NA,2013-04-07,NA,NA,701,56,YEARS,M,WHITE,NOT HISPANIC OR LATINO,Xan_Hi,Xanomeline High Dose,Xan_Hi,Xanomeline High Dose,USA,2013-01-28,-15,Xanomeline High Dose,Xanomeline High Dose,2013-02-12T00:00:00Z,H,2013-03-18T23:59:59Z,H,2013-02-12,2013-03-18,35,NA,2013-03-23,DISCONTINUED,NA,NA,NA,NA,NA,2013-03-23,Y,White,18-64,"NA",NA,NA,NA,NA
NA,CDISCPILOT01,01-701-1180,NA,NA,NA,NA,NA,NA,NA,NA,NA,NA,NA,2013-02-12,BOR,Best Overall Response by Investigator (confirmation not required),Tumor Response,Investigator,RECIST 1.1,NA,NA,NA,MISSING,7,Y,NA,2,1180,2013-02-12,2013-03-23,2013-02-12,2013-03-18,NA,2013-04-07,NA,NA,701,56,YEARS,M,WHITE,NOT HISPANIC OR LATINO,Xan_Hi,Xanomeline High Dose,Xan_Hi,Xanomeline High Dose,USA,2013-01-28,-15,Xanomeline High Dose,Xanomeline High Dose,2013-02-12T00:00:00Z,H,2013-03-18T23:59:59Z,H,2013-02-12,2013-03-18,35,NA,2013-03-23,DISCONTINUED,NA,NA,NA,NA,NA,2013-03-23,Y,White,18-64,"NA",NA,NA,NA,NA
NA,CDISCPILOT01,01-701-1180,NA,NA,NA,NA,NA,NA,NA,NA,NA,NA,NA,2013-02-12,CB,Clinical Benefit by Investigator (confirmation for response not required),Tumor Response,Investigator,RECIST 1.1,NA,NA,NA,N,0,Y,NA,3,1180,2013-02-12,2013-03-23,2013-02-12,2013-03-18,NA,2013-04-07,NA,NA,701,56,YEARS,M,WHITE,NOT HISPANIC OR LATINO,Xan_Hi,Xanomeline High Dose,Xan_Hi,Xanomeline High Dose,USA,2013-01-28,-15,Xanomeline High Dose,Xanomeline High Dose,2013-02-12T00:00:00Z,H,2013-03-18T23:59:59Z,H,2013-02-12,2013-03-18,35,NA,2013-03-23,DISCONTINUED,NA,NA,NA,NA,NA,2013-03-23,Y,White,18-64,"NA",NA,NA,NA,NA
NA,CDISCPILOT01,01-701-1180,NA,NA,NA,NA,NA,NA,NA,NA,NA,NA,NA,2013-02-12,CBCP,Best Confirmed Overall Response of CR/PR by Investigator,Tumor Response,Investigator,RECIST 1.1,NA,NA,NA,N,0,Y,NA,4,1180,2013-02-12,2013-03-23,2013-02-12,2013-03-18,NA,2013-04-07,NA,NA,701,56,YEARS,M,WHITE,NOT HISPANIC OR LATINO,Xan_Hi,Xanomeline High Dose,Xan_Hi,Xanomeline High Dose,USA,2013-01-28,-15,Xanomeline High Dose,Xanomeline High Dose,2013-02-12T00:00:00Z,H,2013-03-18T23:59:59Z,H,2013-02-12,2013-03-18,35,NA,2013-03-23,DISCONTINUED,NA,NA,NA,NA,NA,2013-03-23,Y,White,18-64,"NA",NA,NA,NA,NA
NA,CDISCPILOT01,01-701-1180,NA,NA,NA,NA,NA,NA,NA,NA,NA,NA,NA,2013-02-12,CBOR,Best Confirmed Overall Response by Investigator,Tumor Response,Investigator,RECIST 1.1,NA,NA,NA,MISSING,7,Y,NA,5,1180,2013-02-12,2013-03-23,2013-02-12,2013-03-18,NA,2013-04-07,NA,NA,701,56,YEARS,M,WHITE,NOT HISPANIC OR LATINO,Xan_Hi,Xanomeline High Dose,Xan_Hi,Xanomeline High Dose,USA,2013-01-28,-15,Xanomeline High Dose,Xanomeline High Dose,2013-02-12T00:00:00Z,H,2013-03-18T23:59:59Z,H,2013-02-12,2013-03-18,35,NA,2013-03-23,DISCONTINUED,NA,NA,NA,NA,NA,2013-03-23,Y,White,18-64,"NA",NA,NA,NA,NA
NA,CDISCPILOT01,01-701-1180,NA,NA,NA,NA,NA,NA,NA,NA,NA,NA,NA,2013-02-12,CCB,Confirmed Clinical Benefit by Investigator,Tumor Response,Investigator,RECIST 1.1,NA,NA,NA,N,0,Y,NA,6,1180,2013-02-12,2013-03-23,2013-02-12,2013-03-18,NA,2013-04-07,NA,NA,701,56,YEARS,M,WHITE,NOT HISPANIC OR LATINO,Xan_Hi,Xanomeline High Dose,Xan_Hi,Xanomeline High Dose,USA,2013-01-28,-15,Xanomeline High Dose,Xanomeline High Dose,2013-02-12T00:00:00Z,H,2013-03-18T23:59:59Z,H,2013-02-12,2013-03-18,35,NA,2013-03-23,DISCONTINUED,NA,NA,NA,NA,NA,2013-03-23,Y,White,18-64,"NA",NA,NA,NA,NA
NA,CDISCPILOT01,01-701-1180,NA,NA,NA,NA,NA,NA,NA,NA,NA,NA,NA,2013-02-12,CRSP,Confirmed Response by Investigator,Tumor Response,Investigator,RECIST 1.1,NA,NA,NA,N,0,Y,NA,7,1180,2013-02-12,2013-03-23,2013-02-12,2013-03-18,NA,2013-04-07,NA,NA,701,56,YEARS,M,WHITE,NOT HISPANIC OR LATINO,Xan_Hi,Xanomeline High Dose,Xan_Hi,Xanomeline High Dose,USA,2013-01-28,-15,Xanomeline High Dose,Xanomeline High Dose,2013-02-12T00:00:00Z,H,2013-03-18T23:59:59Z,H,2013-02-12,2013-03-18,35,NA,2013-03-23,DISCONTINUED,NA,NA,NA,NA,NA,2013-03-23,Y,White,18-64,"NA",NA,NA,NA,NA
NA,CDISCPILOT01,01-701-1180,NA,NA,NA,NA,NA,NA,NA,NA,NA,NA,NA,2013-02-12,DEATH,Death,Reference Event,NA,NA,NA,NA,NA,N,0,Y,NA,8,1180,2013-02-12,2013-03-23,2013-02-12,2013-03-18,NA,2013-04-07,NA,NA,701,56,YEARS,M,WHITE,NOT HISPANIC OR LATINO,Xan_Hi,Xanomeline High Dose,Xan_Hi,Xanomeline High Dose,USA,2013-01-28,-15,Xanomeline High Dose,Xanomeline High Dose,2013-02-12T00:00:00Z,H,2013-03-18T23:59:59Z,H,2013-02-12,2013-03-18,35,NA,2013-03-23,DISCONTINUED,NA,NA,NA,NA,NA,2013-03-23,Y,White,18-64,"NA",NA,NA,NA,NA
NA,CDISCPILOT01,01-701-1180,NA,NA,NA,NA,NA,NA,NA,NA,NA,NA,NA,2013-02-12,LSTA,Last Disease Assessment by Investigator,Tumor Response,Investigator,RECIST 1.1,NA,NA,NA,NA,NA,Y,NA,9,1180,2013-02-12,2013-03-23,2013-02-12,2013-03-18,NA,2013-04-07,NA,NA,701,56,YEARS,M,WHITE,NOT HISPANIC OR LATINO,Xan_Hi,Xanomeline High Dose,Xan_Hi,Xanomeline High Dose,USA,2013-01-28,-15,Xanomeline High Dose,Xanomeline High Dose,2013-02-12T00:00:00Z,H,2013-03-18T23:59:59Z,H,2013-02-12,2013-03-18,35,NA,2013-03-23,DISCONTINUED,NA,NA,NA,NA,NA,2013-03-23,Y,White,18-64,"NA",NA,NA,NA,NA
NA,CDISCPILOT01,01-701-1180,NA,NA,NA,NA,NA,NA,NA,NA,NA,NA,NA,2013-02-12,MDIS,Measurable Disease at Baseline by Investigator,NA,Investigator,RECIST 1.1,NA,NA,NA,N,0,Y,NA,10,1180,2013-02-12,2013-03-23,2013-02-12,2013-03-18,NA,2013-04-07,NA,NA,701,56,YEARS,M,WHITE,NOT HISPANIC OR LATINO,Xan_Hi,Xanomeline High Dose,Xan_Hi,Xanomeline High Dose,USA,2013-01-28,-15,Xanomeline High Dose,Xanomeline High Dose,2013-02-12T00:00:00Z,H,2013-03-18T23:59:59Z,H,2013-02-12,2013-03-18,35,NA,2013-03-23,DISCONTINUED,NA,NA,NA,NA,NA,2013-03-23,Y,White,18-64,"NA",NA,NA,NA,NA
NA,CDISCPILOT01,01-701-1180,NA,NA,NA,NA,NA,NA,NA,NA,NA,NA,NA,2013-02-12,PD,Disease Progression by Investigator,Tumor Response,Investigator,RECIST 1.1,NA,NA,NA,N,0,Y,NA,11,1180,2013-02-12,2013-03-23,2013-02-12,2013-03-18,NA,2013-04-07,NA,NA,701,56,YEARS,M,WHITE,NOT HISPANIC OR LATINO,Xan_Hi,Xanomeline High Dose,Xan_Hi,Xanomeline High Dose,USA,2013-01-28,-15,Xanomeline High Dose,Xanomeline High Dose,2013-02-12T00:00:00Z,H,2013-03-18T23:59:59Z,H,2013-02-12,2013-03-18,35,NA,2013-03-23,DISCONTINUED,NA,NA,NA,NA,NA,2013-03-23,Y,White,18-64,"NA",NA,NA,NA,NA
NA,CDISCPILOT01,01-701-1180,NA,NA,NA,NA,NA,NA,NA,NA,NA,NA,NA,2013-02-12,RSP,Response by Investigator (confirmation not required),Tumor Response,Investigator,RECIST 1.1,NA,NA,NA,N,0,Y,NA,12,1180,2013-02-12,2013-03-23,2013-02-12,2013-03-18,NA,2013-04-07,NA,NA,701,56,YEARS,M,WHITE,NOT HISPANIC OR LATINO,Xan_Hi,Xanomeline High Dose,Xan_Hi,Xanomeline High Dose,USA,2013-01-28,-15,Xanomeline High Dose,Xanomeline High Dose,2013-02-12T00:00:00Z,H,2013-03-18T23:59:59Z,H,2013-02-12,2013-03-18,35,NA,2013-03-23,DISCONTINUED,NA,NA,NA,NA,NA,2013-03-23,Y,White,18-64,"NA",NA,NA,NA,NA
NA,CDISCPILOT01,01-701-1181,NA,NA,NA,NA,NA,NA,NA,NA,NA,NA,NA,2013-12-05,BCP,Best Overall Response of CR/PR by Investigator (confirmation not required),Tumor Response,Investigator,RECIST 1.1,NA,NA,NA,N,0,Y,NA,1,1181,2013-12-05,2013-12-12,2013-12-05,2013-12-09,NA,2014-05-23,NA,NA,701,79,YEARS,F,WHITE,NOT HISPANIC OR LATINO,Xan_Hi,Xanomeline High Dose,Xan_Lo,Xanomeline Low Dose,USA,2013-11-26,-9,Xanomeline High Dose,Xanomeline Low Dose,2013-12-05T00:00:00Z,H,2013-12-09T23:59:59Z,H,2013-12-05,2013-12-09,5,NA,2013-12-12,DISCONTINUED,2014-05-23,NA,NA,NA,NA,2013-12-12,Y,White,>64,"NA",NA,NA,NA,NA
NA,CDISCPILOT01,01-701-1181,NA,NA,NA,NA,NA,NA,NA,NA,NA,NA,NA,2013-12-05,BOR,Best Overall Response by Investigator (confirmation not required),Tumor Response,Investigator,RECIST 1.1,NA,NA,NA,MISSING,7,Y,NA,2,1181,2013-12-05,2013-12-12,2013-12-05,2013-12-09,NA,2014-05-23,NA,NA,701,79,YEARS,F,WHITE,NOT HISPANIC OR LATINO,Xan_Hi,Xanomeline High Dose,Xan_Lo,Xanomeline Low Dose,USA,2013-11-26,-9,Xanomeline High Dose,Xanomeline Low Dose,2013-12-05T00:00:00Z,H,2013-12-09T23:59:59Z,H,2013-12-05,2013-12-09,5,NA,2013-12-12,DISCONTINUED,2014-05-23,NA,NA,NA,NA,2013-12-12,Y,White,>64,"NA",NA,NA,NA,NA
NA,CDISCPILOT01,01-701-1181,NA,NA,NA,NA,NA,NA,NA,NA,NA,NA,NA,2013-12-05,CB,Clinical Benefit by Investigator (confirmation for response not required),Tumor Response,Investigator,RECIST 1.1,NA,NA,NA,N,0,Y,NA,3,1181,2013-12-05,2013-12-12,2013-12-05,2013-12-09,NA,2014-05-23,NA,NA,701,79,YEARS,F,WHITE,NOT HISPANIC OR LATINO,Xan_Hi,Xanomeline High Dose,Xan_Lo,Xanomeline Low Dose,USA,2013-11-26,-9,Xanomeline High Dose,Xanomeline Low Dose,2013-12-05T00:00:00Z,H,2013-12-09T23:59:59Z,H,2013-12-05,2013-12-09,5,NA,2013-12-12,DISCONTINUED,2014-05-23,NA,NA,NA,NA,2013-12-12,Y,White,>64,"NA",NA,NA,NA,NA
NA,CDISCPILOT01,01-701-1181,NA,NA,NA,NA,NA,NA,NA,NA,NA,NA,NA,2013-12-05,CBCP,Best Confirmed Overall Response of CR/PR by Investigator,Tumor Response,Investigator,RECIST 1.1,NA,NA,NA,N,0,Y,NA,4,1181,2013-12-05,2013-12-12,2013-12-05,2013-12-09,NA,2014-05-23,NA,NA,701,79,YEARS,F,WHITE,NOT HISPANIC OR LATINO,Xan_Hi,Xanomeline High Dose,Xan_Lo,Xanomeline Low Dose,USA,2013-11-26,-9,Xanomeline High Dose,Xanomeline Low Dose,2013-12-05T00:00:00Z,H,2013-12-09T23:59:59Z,H,2013-12-05,2013-12-09,5,NA,2013-12-12,DISCONTINUED,2014-05-23,NA,NA,NA,NA,2013-12-12,Y,White,>64,"NA",NA,NA,NA,NA
NA,CDISCPILOT01,01-701-1181,NA,NA,NA,NA,NA,NA,NA,NA,NA,NA,NA,2013-12-05,CBOR,Best Confirmed Overall Response by Investigator,Tumor Response,Investigator,RECIST 1.1,NA,NA,NA,MISSING,7,Y,NA,5,1181,2013-12-05,2013-12-12,2013-12-05,2013-12-09,NA,2014-05-23,NA,NA,701,79,YEARS,F,WHITE,NOT HISPANIC OR LATINO,Xan_Hi,Xanomeline High Dose,Xan_Lo,Xanomeline Low Dose,USA,2013-11-26,-9,Xanomeline High Dose,Xanomeline Low Dose,2013-12-05T00:00:00Z,H,2013-12-09T23:59:59Z,H,2013-12-05,2013-12-09,5,NA,2013-12-12,DISCONTINUED,2014-05-23,NA,NA,NA,NA,2013-12-12,Y,White,>64,"NA",NA,NA,NA,NA
NA,CDISCPILOT01,01-701-1181,NA,NA,NA,NA,NA,NA,NA,NA,NA,NA,NA,2013-12-05,CCB,Confirmed Clinical Benefit by Investigator,Tumor Response,Investigator,RECIST 1.1,NA,NA,NA,N,0,Y,NA,6,1181,2013-12-05,2013-12-12,2013-12-05,2013-12-09,NA,2014-05-23,NA,NA,701,79,YEARS,F,WHITE,NOT HISPANIC OR LATINO,Xan_Hi,Xanomeline High Dose,Xan_Lo,Xanomeline Low Dose,USA,2013-11-26,-9,Xanomeline High Dose,Xanomeline Low Dose,2013-12-05T00:00:00Z,H,2013-12-09T23:59:59Z,H,2013-12-05,2013-12-09,5,NA,2013-12-12,DISCONTINUED,2014-05-23,NA,NA,NA,NA,2013-12-12,Y,White,>64,"NA",NA,NA,NA,NA
NA,CDISCPILOT01,01-701-1181,NA,NA,NA,NA,NA,NA,NA,NA,NA,NA,NA,2013-12-05,CRSP,Confirmed Response by Investigator,Tumor Response,Investigator,RECIST 1.1,NA,NA,NA,N,0,Y,NA,7,1181,2013-12-05,2013-12-12,2013-12-05,2013-12-09,NA,2014-05-23,NA,NA,701,79,YEARS,F,WHITE,NOT HISPANIC OR LATINO,Xan_Hi,Xanomeline High Dose,Xan_Lo,Xanomeline Low Dose,USA,2013-11-26,-9,Xanomeline High Dose,Xanomeline Low Dose,2013-12-05T00:00:00Z,H,2013-12-09T23:59:59Z,H,2013-12-05,2013-12-09,5,NA,2013-12-12,DISCONTINUED,2014-05-23,NA,NA,NA,NA,2013-12-12,Y,White,>64,"NA",NA,NA,NA,NA
NA,CDISCPILOT01,01-701-1181,NA,NA,NA,NA,NA,NA,NA,NA,NA,NA,NA,2013-12-05,DEATH,Death,Reference Event,NA,NA,NA,NA,NA,N,0,Y,NA,8,1181,2013-12-05,2013-12-12,2013-12-05,2013-12-09,NA,2014-05-23,NA,NA,701,79,YEARS,F,WHITE,NOT HISPANIC OR LATINO,Xan_Hi,Xanomeline High Dose,Xan_Lo,Xanomeline Low Dose,USA,2013-11-26,-9,Xanomeline High Dose,Xanomeline Low Dose,2013-12-05T00:00:00Z,H,2013-12-09T23:59:59Z,H,2013-12-05,2013-12-09,5,NA,2013-12-12,DISCONTINUED,2014-05-23,NA,NA,NA,NA,2013-12-12,Y,White,>64,"NA",NA,NA,NA,NA
NA,CDISCPILOT01,01-701-1181,NA,NA,NA,NA,NA,NA,NA,NA,NA,NA,NA,2013-12-05,LSTA,Last Disease Assessment by Investigator,Tumor Response,Investigator,RECIST 1.1,NA,NA,NA,NA,NA,Y,NA,9,1181,2013-12-05,2013-12-12,2013-12-05,2013-12-09,NA,2014-05-23,NA,NA,701,79,YEARS,F,WHITE,NOT HISPANIC OR LATINO,Xan_Hi,Xanomeline High Dose,Xan_Lo,Xanomeline Low Dose,USA,2013-11-26,-9,Xanomeline High Dose,Xanomeline Low Dose,2013-12-05T00:00:00Z,H,2013-12-09T23:59:59Z,H,2013-12-05,2013-12-09,5,NA,2013-12-12,DISCONTINUED,2014-05-23,NA,NA,NA,NA,2013-12-12,Y,White,>64,"NA",NA,NA,NA,NA
NA,CDISCPILOT01,01-701-1181,NA,NA,NA,NA,NA,NA,NA,NA,NA,NA,NA,2013-12-05,MDIS,Measurable Disease at Baseline by Investigator,NA,Investigator,RECIST 1.1,NA,NA,NA,N,0,Y,NA,10,1181,2013-12-05,2013-12-12,2013-12-05,2013-12-09,NA,2014-05-23,NA,NA,701,79,YEARS,F,WHITE,NOT HISPANIC OR LATINO,Xan_Hi,Xanomeline High Dose,Xan_Lo,Xanomeline Low Dose,USA,2013-11-26,-9,Xanomeline High Dose,Xanomeline Low Dose,2013-12-05T00:00:00Z,H,2013-12-09T23:59:59Z,H,2013-12-05,2013-12-09,5,NA,2013-12-12,DISCONTINUED,2014-05-23,NA,NA,NA,NA,2013-12-12,Y,White,>64,"NA",NA,NA,NA,NA
NA,CDISCPILOT01,01-701-1181,NA,NA,NA,NA,NA,NA,NA,NA,NA,NA,NA,2013-12-05,PD,Disease Progression by Investigator,Tumor Response,Investigator,RECIST 1.1,NA,NA,NA,N,0,Y,NA,11,1181,2013-12-05,2013-12-12,2013-12-05,2013-12-09,NA,2014-05-23,NA,NA,701,79,YEARS,F,WHITE,NOT HISPANIC OR LATINO,Xan_Hi,Xanomeline High Dose,Xan_Lo,Xanomeline Low Dose,USA,2013-11-26,-9,Xanomeline High Dose,Xanomeline Low Dose,2013-12-05T00:00:00Z,H,2013-12-09T23:59:59Z,H,2013-12-05,2013-12-09,5,NA,2013-12-12,DISCONTINUED,2014-05-23,NA,NA,NA,NA,2013-12-12,Y,White,>64,"NA",NA,NA,NA,NA
NA,CDISCPILOT01,01-701-1181,NA,NA,NA,NA,NA,NA,NA,NA,NA,NA,NA,2013-12-05,RSP,Response by Investigator (confirmation not required),Tumor Response,Investigator,RECIST 1.1,NA,NA,NA,N,0,Y,NA,12,1181,2013-12-05,2013-12-12,2013-12-05,2013-12-09,NA,2014-05-23,NA,NA,701,79,YEARS,F,WHITE,NOT HISPANIC OR LATINO,Xan_Hi,Xanomeline High Dose,Xan_Lo,Xanomeline Low Dose,USA,2013-11-26,-9,Xanomeline High Dose,Xanomeline Low Dose,2013-12-05T00:00:00Z,H,2013-12-09T23:59:59Z,H,2013-12-05,2013-12-09,5,NA,2013-12-12,DISCONTINUED,2014-05-23,NA,NA,NA,NA,2013-12-12,Y,White,>64,"NA",NA,NA,NA,NA
NA,CDISCPILOT01,01-701-1188,NA,NA,NA,NA,NA,NA,NA,NA,NA,NA,NA,2013-02-15,BCP,Best Overall Response of CR/PR by Investigator (confirmation not required),Tumor Response,Investigator,RECIST 1.1,NA,NA,NA,N,0,Y,NA,1,1188,2013-02-15,2013-03-25,2013-02-15,2013-03-24,NA,2013-08-04,NA,NA,701,71,YEARS,M,WHITE,NOT HISPANIC OR LATINO,Xan_Lo,Xanomeline Low Dose,Xan_Lo,Xanomeline Low Dose,USA,2013-02-03,-12,Xanomeline Low Dose,Xanomeline Low Dose,2013-02-15T00:00:00Z,H,2013-03-24T23:59:59Z,H,2013-02-15,2013-03-24,38,NA,2013-03-25,DISCONTINUED,2013-08-04,NA,NA,NA,NA,2013-03-25,Y,White,>64,"NA",NA,NA,NA,NA
NA,CDISCPILOT01,01-701-1188,NA,NA,NA,NA,NA,NA,NA,NA,NA,NA,NA,2013-02-15,BOR,Best Overall Response by Investigator (confirmation not required),Tumor Response,Investigator,RECIST 1.1,NA,NA,NA,MISSING,7,Y,NA,2,1188,2013-02-15,2013-03-25,2013-02-15,2013-03-24,NA,2013-08-04,NA,NA,701,71,YEARS,M,WHITE,NOT HISPANIC OR LATINO,Xan_Lo,Xanomeline Low Dose,Xan_Lo,Xanomeline Low Dose,USA,2013-02-03,-12,Xanomeline Low Dose,Xanomeline Low Dose,2013-02-15T00:00:00Z,H,2013-03-24T23:59:59Z,H,2013-02-15,2013-03-24,38,NA,2013-03-25,DISCONTINUED,2013-08-04,NA,NA,NA,NA,2013-03-25,Y,White,>64,"NA",NA,NA,NA,NA
NA,CDISCPILOT01,01-701-1188,NA,NA,NA,NA,NA,NA,NA,NA,NA,NA,NA,2013-02-15,CB,Clinical Benefit by Investigator (confirmation for response not required),Tumor Response,Investigator,RECIST 1.1,NA,NA,NA,N,0,Y,NA,3,1188,2013-02-15,2013-03-25,2013-02-15,2013-03-24,NA,2013-08-04,NA,NA,701,71,YEARS,M,WHITE,NOT HISPANIC OR LATINO,Xan_Lo,Xanomeline Low Dose,Xan_Lo,Xanomeline Low Dose,USA,2013-02-03,-12,Xanomeline Low Dose,Xanomeline Low Dose,2013-02-15T00:00:00Z,H,2013-03-24T23:59:59Z,H,2013-02-15,2013-03-24,38,NA,2013-03-25,DISCONTINUED,2013-08-04,NA,NA,NA,NA,2013-03-25,Y,White,>64,"NA",NA,NA,NA,NA
NA,CDISCPILOT01,01-701-1188,NA,NA,NA,NA,NA,NA,NA,NA,NA,NA,NA,2013-02-15,CBCP,Best Confirmed Overall Response of CR/PR by Investigator,Tumor Response,Investigator,RECIST 1.1,NA,NA,NA,N,0,Y,NA,4,1188,2013-02-15,2013-03-25,2013-02-15,2013-03-24,NA,2013-08-04,NA,NA,701,71,YEARS,M,WHITE,NOT HISPANIC OR LATINO,Xan_Lo,Xanomeline Low Dose,Xan_Lo,Xanomeline Low Dose,USA,2013-02-03,-12,Xanomeline Low Dose,Xanomeline Low Dose,2013-02-15T00:00:00Z,H,2013-03-24T23:59:59Z,H,2013-02-15,2013-03-24,38,NA,2013-03-25,DISCONTINUED,2013-08-04,NA,NA,NA,NA,2013-03-25,Y,White,>64,"NA",NA,NA,NA,NA
NA,CDISCPILOT01,01-701-1188,NA,NA,NA,NA,NA,NA,NA,NA,NA,NA,NA,2013-02-15,CBOR,Best Confirmed Overall Response by Investigator,Tumor Response,Investigator,RECIST 1.1,NA,NA,NA,MISSING,7,Y,NA,5,1188,2013-02-15,2013-03-25,2013-02-15,2013-03-24,NA,2013-08-04,NA,NA,701,71,YEARS,M,WHITE,NOT HISPANIC OR LATINO,Xan_Lo,Xanomeline Low Dose,Xan_Lo,Xanomeline Low Dose,USA,2013-02-03,-12,Xanomeline Low Dose,Xanomeline Low Dose,2013-02-15T00:00:00Z,H,2013-03-24T23:59:59Z,H,2013-02-15,2013-03-24,38,NA,2013-03-25,DISCONTINUED,2013-08-04,NA,NA,NA,NA,2013-03-25,Y,White,>64,"NA",NA,NA,NA,NA
NA,CDISCPILOT01,01-701-1188,NA,NA,NA,NA,NA,NA,NA,NA,NA,NA,NA,2013-02-15,CCB,Confirmed Clinical Benefit by Investigator,Tumor Response,Investigator,RECIST 1.1,NA,NA,NA,N,0,Y,NA,6,1188,2013-02-15,2013-03-25,2013-02-15,2013-03-24,NA,2013-08-04,NA,NA,701,71,YEARS,M,WHITE,NOT HISPANIC OR LATINO,Xan_Lo,Xanomeline Low Dose,Xan_Lo,Xanomeline Low Dose,USA,2013-02-03,-12,Xanomeline Low Dose,Xanomeline Low Dose,2013-02-15T00:00:00Z,H,2013-03-24T23:59:59Z,H,2013-02-15,2013-03-24,38,NA,2013-03-25,DISCONTINUED,2013-08-04,NA,NA,NA,NA,2013-03-25,Y,White,>64,"NA",NA,NA,NA,NA
NA,CDISCPILOT01,01-701-1188,NA,NA,NA,NA,NA,NA,NA,NA,NA,NA,NA,2013-02-15,CRSP,Confirmed Response by Investigator,Tumor Response,Investigator,RECIST 1.1,NA,NA,NA,N,0,Y,NA,7,1188,2013-02-15,2013-03-25,2013-02-15,2013-03-24,NA,2013-08-04,NA,NA,701,71,YEARS,M,WHITE,NOT HISPANIC OR LATINO,Xan_Lo,Xanomeline Low Dose,Xan_Lo,Xanomeline Low Dose,USA,2013-02-03,-12,Xanomeline Low Dose,Xanomeline Low Dose,2013-02-15T00:00:00Z,H,2013-03-24T23:59:59Z,H,2013-02-15,2013-03-24,38,NA,2013-03-25,DISCONTINUED,2013-08-04,NA,NA,NA,NA,2013-03-25,Y,White,>64,"NA",NA,NA,NA,NA
NA,CDISCPILOT01,01-701-1188,NA,NA,NA,NA,NA,NA,NA,NA,NA,NA,NA,2013-02-15,DEATH,Death,Reference Event,NA,NA,NA,NA,NA,N,0,Y,NA,8,1188,2013-02-15,2013-03-25,2013-02-15,2013-03-24,NA,2013-08-04,NA,NA,701,71,YEARS,M,WHITE,NOT HISPANIC OR LATINO,Xan_Lo,Xanomeline Low Dose,Xan_Lo,Xanomeline Low Dose,USA,2013-02-03,-12,Xanomeline Low Dose,Xanomeline Low Dose,2013-02-15T00:00:00Z,H,2013-03-24T23:59:59Z,H,2013-02-15,2013-03-24,38,NA,2013-03-25,DISCONTINUED,2013-08-04,NA,NA,NA,NA,2013-03-25,Y,White,>64,"NA",NA,NA,NA,NA
NA,CDISCPILOT01,01-701-1188,NA,NA,NA,NA,NA,NA,NA,NA,NA,NA,NA,2013-02-15,LSTA,Last Disease Assessment by Investigator,Tumor Response,Investigator,RECIST 1.1,NA,NA,NA,NA,NA,Y,NA,9,1188,2013-02-15,2013-03-25,2013-02-15,2013-03-24,NA,2013-08-04,NA,NA,701,71,YEARS,M,WHITE,NOT HISPANIC OR LATINO,Xan_Lo,Xanomeline Low Dose,Xan_Lo,Xanomeline Low Dose,USA,2013-02-03,-12,Xanomeline Low Dose,Xanomeline Low Dose,2013-02-15T00:00:00Z,H,2013-03-24T23:59:59Z,H,2013-02-15,2013-03-24,38,NA,2013-03-25,DISCONTINUED,2013-08-04,NA,NA,NA,NA,2013-03-25,Y,White,>64,"NA",NA,NA,NA,NA
NA,CDISCPILOT01,01-701-1188,NA,NA,NA,NA,NA,NA,NA,NA,NA,NA,NA,2013-02-15,MDIS,Measurable Disease at Baseline by Investigator,NA,Investigator,RECIST 1.1,NA,NA,NA,N,0,Y,NA,10,1188,2013-02-15,2013-03-25,2013-02-15,2013-03-24,NA,2013-08-04,NA,NA,701,71,YEARS,M,WHITE,NOT HISPANIC OR LATINO,Xan_Lo,Xanomeline Low Dose,Xan_Lo,Xanomeline Low Dose,USA,2013-02-03,-12,Xanomeline Low Dose,Xanomeline Low Dose,2013-02-15T00:00:00Z,H,2013-03-24T23:59:59Z,H,2013-02-15,2013-03-24,38,NA,2013-03-25,DISCONTINUED,2013-08-04,NA,NA,NA,NA,2013-03-25,Y,White,>64,"NA",NA,NA,NA,NA
NA,CDISCPILOT01,01-701-1188,NA,NA,NA,NA,NA,NA,NA,NA,NA,NA,NA,2013-02-15,PD,Disease Progression by Investigator,Tumor Response,Investigator,RECIST 1.1,NA,NA,NA,N,0,Y,NA,11,1188,2013-02-15,2013-03-25,2013-02-15,2013-03-24,NA,2013-08-04,NA,NA,701,71,YEARS,M,WHITE,NOT HISPANIC OR LATINO,Xan_Lo,Xanomeline Low Dose,Xan_Lo,Xanomeline Low Dose,USA,2013-02-03,-12,Xanomeline Low Dose,Xanomeline Low Dose,2013-02-15T00:00:00Z,H,2013-03-24T23:59:59Z,H,2013-02-15,2013-03-24,38,NA,2013-03-25,DISCONTINUED,2013-08-04,NA,NA,NA,NA,2013-03-25,Y,White,>64,"NA",NA,NA,NA,NA
NA,CDISCPILOT01,01-701-1188,NA,NA,NA,NA,NA,NA,NA,NA,NA,NA,NA,2013-02-15,RSP,Response by Investigator (confirmation not required),Tumor Response,Investigator,RECIST 1.1,NA,NA,NA,N,0,Y,NA,12,1188,2013-02-15,2013-03-25,2013-02-15,2013-03-24,NA,2013-08-04,NA,NA,701,71,YEARS,M,WHITE,NOT HISPANIC OR LATINO,Xan_Lo,Xanomeline Low Dose,Xan_Lo,Xanomeline Low Dose,USA,2013-02-03,-12,Xanomeline Low Dose,Xanomeline Low Dose,2013-02-15T00:00:00Z,H,2013-03-24T23:59:59Z,H,2013-02-15,2013-03-24,38,NA,2013-03-25,DISCONTINUED,2013-08-04,NA,NA,NA,NA,2013-03-25,Y,White,>64,"NA",NA,NA,NA,NA
NA,CDISCPILOT01,01-701-1192,NA,NA,NA,NA,NA,NA,NA,NA,NA,NA,NA,2012-07-22,BCP,Best Overall Response of CR/PR by Investigator (confirmation not required),Tumor Response,Investigator,RECIST 1.1,NA,NA,NA,N,0,Y,NA,1,1192,2012-07-22,2013-01-20,2012-07-22,2013-01-20,NA,2013-01-20T15:47,NA,NA,701,80,YEARS,F,WHITE,NOT HISPANIC OR LATINO,Xan_Lo,Xanomeline Low Dose,Xan_Lo,Xanomeline Low Dose,USA,2012-07-08,-14,Xanomeline Low Dose,Xanomeline Low Dose,2012-07-22T00:00:00Z,H,2013-01-20T23:59:59Z,H,2012-07-22,2013-01-20,183,NA,2013-01-20,COMPLETED,NA,NA,NA,NA,NA,2013-01-20,Y,White,>64,"NA",NA,NA,NA,NA
NA,CDISCPILOT01,01-701-1192,NA,NA,NA,NA,NA,NA,NA,NA,NA,NA,NA,2012-07-22,BOR,Best Overall Response by Investigator (confirmation not required),Tumor Response,Investigator,RECIST 1.1,NA,NA,NA,MISSING,7,Y,NA,2,1192,2012-07-22,2013-01-20,2012-07-22,2013-01-20,NA,2013-01-20T15:47,NA,NA,701,80,YEARS,F,WHITE,NOT HISPANIC OR LATINO,Xan_Lo,Xanomeline Low Dose,Xan_Lo,Xanomeline Low Dose,USA,2012-07-08,-14,Xanomeline Low Dose,Xanomeline Low Dose,2012-07-22T00:00:00Z,H,2013-01-20T23:59:59Z,H,2012-07-22,2013-01-20,183,NA,2013-01-20,COMPLETED,NA,NA,NA,NA,NA,2013-01-20,Y,White,>64,"NA",NA,NA,NA,NA
NA,CDISCPILOT01,01-701-1192,NA,NA,NA,NA,NA,NA,NA,NA,NA,NA,NA,2012-07-22,CB,Clinical Benefit by Investigator (confirmation for response not required),Tumor Response,Investigator,RECIST 1.1,NA,NA,NA,N,0,Y,NA,3,1192,2012-07-22,2013-01-20,2012-07-22,2013-01-20,NA,2013-01-20T15:47,NA,NA,701,80,YEARS,F,WHITE,NOT HISPANIC OR LATINO,Xan_Lo,Xanomeline Low Dose,Xan_Lo,Xanomeline Low Dose,USA,2012-07-08,-14,Xanomeline Low Dose,Xanomeline Low Dose,2012-07-22T00:00:00Z,H,2013-01-20T23:59:59Z,H,2012-07-22,2013-01-20,183,NA,2013-01-20,COMPLETED,NA,NA,NA,NA,NA,2013-01-20,Y,White,>64,"NA",NA,NA,NA,NA
NA,CDISCPILOT01,01-701-1192,NA,NA,NA,NA,NA,NA,NA,NA,NA,NA,NA,2012-07-22,CBCP,Best Confirmed Overall Response of CR/PR by Investigator,Tumor Response,Investigator,RECIST 1.1,NA,NA,NA,N,0,Y,NA,4,1192,2012-07-22,2013-01-20,2012-07-22,2013-01-20,NA,2013-01-20T15:47,NA,NA,701,80,YEARS,F,WHITE,NOT HISPANIC OR LATINO,Xan_Lo,Xanomeline Low Dose,Xan_Lo,Xanomeline Low Dose,USA,2012-07-08,-14,Xanomeline Low Dose,Xanomeline Low Dose,2012-07-22T00:00:00Z,H,2013-01-20T23:59:59Z,H,2012-07-22,2013-01-20,183,NA,2013-01-20,COMPLETED,NA,NA,NA,NA,NA,2013-01-20,Y,White,>64,"NA",NA,NA,NA,NA
NA,CDISCPILOT01,01-701-1192,NA,NA,NA,NA,NA,NA,NA,NA,NA,NA,NA,2012-07-22,CBOR,Best Confirmed Overall Response by Investigator,Tumor Response,Investigator,RECIST 1.1,NA,NA,NA,MISSING,7,Y,NA,5,1192,2012-07-22,2013-01-20,2012-07-22,2013-01-20,NA,2013-01-20T15:47,NA,NA,701,80,YEARS,F,WHITE,NOT HISPANIC OR LATINO,Xan_Lo,Xanomeline Low Dose,Xan_Lo,Xanomeline Low Dose,USA,2012-07-08,-14,Xanomeline Low Dose,Xanomeline Low Dose,2012-07-22T00:00:00Z,H,2013-01-20T23:59:59Z,H,2012-07-22,2013-01-20,183,NA,2013-01-20,COMPLETED,NA,NA,NA,NA,NA,2013-01-20,Y,White,>64,"NA",NA,NA,NA,NA
NA,CDISCPILOT01,01-701-1192,NA,NA,NA,NA,NA,NA,NA,NA,NA,NA,NA,2012-07-22,CCB,Confirmed Clinical Benefit by Investigator,Tumor Response,Investigator,RECIST 1.1,NA,NA,NA,N,0,Y,NA,6,1192,2012-07-22,2013-01-20,2012-07-22,2013-01-20,NA,2013-01-20T15:47,NA,NA,701,80,YEARS,F,WHITE,NOT HISPANIC OR LATINO,Xan_Lo,Xanomeline Low Dose,Xan_Lo,Xanomeline Low Dose,USA,2012-07-08,-14,Xanomeline Low Dose,Xanomeline Low Dose,2012-07-22T00:00:00Z,H,2013-01-20T23:59:59Z,H,2012-07-22,2013-01-20,183,NA,2013-01-20,COMPLETED,NA,NA,NA,NA,NA,2013-01-20,Y,White,>64,"NA",NA,NA,NA,NA
NA,CDISCPILOT01,01-701-1192,NA,NA,NA,NA,NA,NA,NA,NA,NA,NA,NA,2012-07-22,CRSP,Confirmed Response by Investigator,Tumor Response,Investigator,RECIST 1.1,NA,NA,NA,N,0,Y,NA,7,1192,2012-07-22,2013-01-20,2012-07-22,2013-01-20,NA,2013-01-20T15:47,NA,NA,701,80,YEARS,F,WHITE,NOT HISPANIC OR LATINO,Xan_Lo,Xanomeline Low Dose,Xan_Lo,Xanomeline Low Dose,USA,2012-07-08,-14,Xanomeline Low Dose,Xanomeline Low Dose,2012-07-22T00:00:00Z,H,2013-01-20T23:59:59Z,H,2012-07-22,2013-01-20,183,NA,2013-01-20,COMPLETED,NA,NA,NA,NA,NA,2013-01-20,Y,White,>64,"NA",NA,NA,NA,NA
NA,CDISCPILOT01,01-701-1192,NA,NA,NA,NA,NA,NA,NA,NA,NA,NA,NA,2012-07-22,DEATH,Death,Reference Event,NA,NA,NA,NA,NA,N,0,Y,NA,8,1192,2012-07-22,2013-01-20,2012-07-22,2013-01-20,NA,2013-01-20T15:47,NA,NA,701,80,YEARS,F,WHITE,NOT HISPANIC OR LATINO,Xan_Lo,Xanomeline Low Dose,Xan_Lo,Xanomeline Low Dose,USA,2012-07-08,-14,Xanomeline Low Dose,Xanomeline Low Dose,2012-07-22T00:00:00Z,H,2013-01-20T23:59:59Z,H,2012-07-22,2013-01-20,183,NA,2013-01-20,COMPLETED,NA,NA,NA,NA,NA,2013-01-20,Y,White,>64,"NA",NA,NA,NA,NA
NA,CDISCPILOT01,01-701-1192,NA,NA,NA,NA,NA,NA,NA,NA,NA,NA,NA,2012-07-22,LSTA,Last Disease Assessment by Investigator,Tumor Response,Investigator,RECIST 1.1,NA,NA,NA,NA,NA,Y,NA,9,1192,2012-07-22,2013-01-20,2012-07-22,2013-01-20,NA,2013-01-20T15:47,NA,NA,701,80,YEARS,F,WHITE,NOT HISPANIC OR LATINO,Xan_Lo,Xanomeline Low Dose,Xan_Lo,Xanomeline Low Dose,USA,2012-07-08,-14,Xanomeline Low Dose,Xanomeline Low Dose,2012-07-22T00:00:00Z,H,2013-01-20T23:59:59Z,H,2012-07-22,2013-01-20,183,NA,2013-01-20,COMPLETED,NA,NA,NA,NA,NA,2013-01-20,Y,White,>64,"NA",NA,NA,NA,NA
NA,CDISCPILOT01,01-701-1192,NA,NA,NA,NA,NA,NA,NA,NA,NA,NA,NA,2012-07-22,MDIS,Measurable Disease at Baseline by Investigator,NA,Investigator,RECIST 1.1,NA,NA,NA,N,0,Y,NA,10,1192,2012-07-22,2013-01-20,2012-07-22,2013-01-20,NA,2013-01-20T15:47,NA,NA,701,80,YEARS,F,WHITE,NOT HISPANIC OR LATINO,Xan_Lo,Xanomeline Low Dose,Xan_Lo,Xanomeline Low Dose,USA,2012-07-08,-14,Xanomeline Low Dose,Xanomeline Low Dose,2012-07-22T00:00:00Z,H,2013-01-20T23:59:59Z,H,2012-07-22,2013-01-20,183,NA,2013-01-20,COMPLETED,NA,NA,NA,NA,NA,2013-01-20,Y,White,>64,"NA",NA,NA,NA,NA
NA,CDISCPILOT01,01-701-1192,NA,NA,NA,NA,NA,NA,NA,NA,NA,NA,NA,2012-07-22,PD,Disease Progression by Investigator,Tumor Response,Investigator,RECIST 1.1,NA,NA,NA,N,0,Y,NA,11,1192,2012-07-22,2013-01-20,2012-07-22,2013-01-20,NA,2013-01-20T15:47,NA,NA,701,80,YEARS,F,WHITE,NOT HISPANIC OR LATINO,Xan_Lo,Xanomeline Low Dose,Xan_Lo,Xanomeline Low Dose,USA,2012-07-08,-14,Xanomeline Low Dose,Xanomeline Low Dose,2012-07-22T00:00:00Z,H,2013-01-20T23:59:59Z,H,2012-07-22,2013-01-20,183,NA,2013-01-20,COMPLETED,NA,NA,NA,NA,NA,2013-01-20,Y,White,>64,"NA",NA,NA,NA,NA
NA,CDISCPILOT01,01-701-1192,NA,NA,NA,NA,NA,NA,NA,NA,NA,NA,NA,2012-07-22,RSP,Response by Investigator (confirmation not required),Tumor Response,Investigator,RECIST 1.1,NA,NA,NA,N,0,Y,NA,12,1192,2012-07-22,2013-01-20,2012-07-22,2013-01-20,NA,2013-01-20T15:47,NA,NA,701,80,YEARS,F,WHITE,NOT HISPANIC OR LATINO,Xan_Lo,Xanomeline Low Dose,Xan_Lo,Xanomeline Low Dose,USA,2012-07-08,-14,Xanomeline Low Dose,Xanomeline Low Dose,2012-07-22T00:00:00Z,H,2013-01-20T23:59:59Z,H,2012-07-22,2013-01-20,183,NA,2013-01-20,COMPLETED,NA,NA,NA,NA,NA,2013-01-20,Y,White,>64,"NA",NA,NA,NA,NA
NA,CDISCPILOT01,01-701-1203,NA,NA,NA,NA,NA,NA,NA,NA,NA,NA,NA,2013-02-02,BCP,Best Overall Response of CR/PR by Investigator (confirmation not required),Tumor Response,Investigator,RECIST 1.1,NA,NA,NA,N,0,Y,NA,1,1203,2013-02-02,2013-08-03,2013-02-02,2013-08-03,NA,2013-08-03T10:10,NA,NA,701,81,YEARS,F,BLACK OR AFRICAN AMERICAN,NOT HISPANIC OR LATINO,Pbo,Placebo,Pbo,Placebo,USA,2013-01-25,-8,Placebo,Placebo,2013-02-02T00:00:00Z,H,2013-08-03T23:59:59Z,H,2013-02-02,2013-08-03,183,NA,2013-08-03,COMPLETED,NA,NA,NA,NA,NA,2013-08-03,Y,Non-white,>64,"NA",NA,NA,NA,NA
NA,CDISCPILOT01,01-701-1203,NA,NA,NA,NA,NA,NA,NA,NA,NA,NA,NA,2013-02-02,BOR,Best Overall Response by Investigator (confirmation not required),Tumor Response,Investigator,RECIST 1.1,NA,NA,NA,MISSING,7,Y,NA,2,1203,2013-02-02,2013-08-03,2013-02-02,2013-08-03,NA,2013-08-03T10:10,NA,NA,701,81,YEARS,F,BLACK OR AFRICAN AMERICAN,NOT HISPANIC OR LATINO,Pbo,Placebo,Pbo,Placebo,USA,2013-01-25,-8,Placebo,Placebo,2013-02-02T00:00:00Z,H,2013-08-03T23:59:59Z,H,2013-02-02,2013-08-03,183,NA,2013-08-03,COMPLETED,NA,NA,NA,NA,NA,2013-08-03,Y,Non-white,>64,"NA",NA,NA,NA,NA
NA,CDISCPILOT01,01-701-1203,NA,NA,NA,NA,NA,NA,NA,NA,NA,NA,NA,2013-02-02,CB,Clinical Benefit by Investigator (confirmation for response not required),Tumor Response,Investigator,RECIST 1.1,NA,NA,NA,N,0,Y,NA,3,1203,2013-02-02,2013-08-03,2013-02-02,2013-08-03,NA,2013-08-03T10:10,NA,NA,701,81,YEARS,F,BLACK OR AFRICAN AMERICAN,NOT HISPANIC OR LATINO,Pbo,Placebo,Pbo,Placebo,USA,2013-01-25,-8,Placebo,Placebo,2013-02-02T00:00:00Z,H,2013-08-03T23:59:59Z,H,2013-02-02,2013-08-03,183,NA,2013-08-03,COMPLETED,NA,NA,NA,NA,NA,2013-08-03,Y,Non-white,>64,"NA",NA,NA,NA,NA
NA,CDISCPILOT01,01-701-1203,NA,NA,NA,NA,NA,NA,NA,NA,NA,NA,NA,2013-02-02,CBCP,Best Confirmed Overall Response of CR/PR by Investigator,Tumor Response,Investigator,RECIST 1.1,NA,NA,NA,N,0,Y,NA,4,1203,2013-02-02,2013-08-03,2013-02-02,2013-08-03,NA,2013-08-03T10:10,NA,NA,701,81,YEARS,F,BLACK OR AFRICAN AMERICAN,NOT HISPANIC OR LATINO,Pbo,Placebo,Pbo,Placebo,USA,2013-01-25,-8,Placebo,Placebo,2013-02-02T00:00:00Z,H,2013-08-03T23:59:59Z,H,2013-02-02,2013-08-03,183,NA,2013-08-03,COMPLETED,NA,NA,NA,NA,NA,2013-08-03,Y,Non-white,>64,"NA",NA,NA,NA,NA
NA,CDISCPILOT01,01-701-1203,NA,NA,NA,NA,NA,NA,NA,NA,NA,NA,NA,2013-02-02,CBOR,Best Confirmed Overall Response by Investigator,Tumor Response,Investigator,RECIST 1.1,NA,NA,NA,MISSING,7,Y,NA,5,1203,2013-02-02,2013-08-03,2013-02-02,2013-08-03,NA,2013-08-03T10:10,NA,NA,701,81,YEARS,F,BLACK OR AFRICAN AMERICAN,NOT HISPANIC OR LATINO,Pbo,Placebo,Pbo,Placebo,USA,2013-01-25,-8,Placebo,Placebo,2013-02-02T00:00:00Z,H,2013-08-03T23:59:59Z,H,2013-02-02,2013-08-03,183,NA,2013-08-03,COMPLETED,NA,NA,NA,NA,NA,2013-08-03,Y,Non-white,>64,"NA",NA,NA,NA,NA
NA,CDISCPILOT01,01-701-1203,NA,NA,NA,NA,NA,NA,NA,NA,NA,NA,NA,2013-02-02,CCB,Confirmed Clinical Benefit by Investigator,Tumor Response,Investigator,RECIST 1.1,NA,NA,NA,N,0,Y,NA,6,1203,2013-02-02,2013-08-03,2013-02-02,2013-08-03,NA,2013-08-03T10:10,NA,NA,701,81,YEARS,F,BLACK OR AFRICAN AMERICAN,NOT HISPANIC OR LATINO,Pbo,Placebo,Pbo,Placebo,USA,2013-01-25,-8,Placebo,Placebo,2013-02-02T00:00:00Z,H,2013-08-03T23:59:59Z,H,2013-02-02,2013-08-03,183,NA,2013-08-03,COMPLETED,NA,NA,NA,NA,NA,2013-08-03,Y,Non-white,>64,"NA",NA,NA,NA,NA
NA,CDISCPILOT01,01-701-1203,NA,NA,NA,NA,NA,NA,NA,NA,NA,NA,NA,2013-02-02,CRSP,Confirmed Response by Investigator,Tumor Response,Investigator,RECIST 1.1,NA,NA,NA,N,0,Y,NA,7,1203,2013-02-02,2013-08-03,2013-02-02,2013-08-03,NA,2013-08-03T10:10,NA,NA,701,81,YEARS,F,BLACK OR AFRICAN AMERICAN,NOT HISPANIC OR LATINO,Pbo,Placebo,Pbo,Placebo,USA,2013-01-25,-8,Placebo,Placebo,2013-02-02T00:00:00Z,H,2013-08-03T23:59:59Z,H,2013-02-02,2013-08-03,183,NA,2013-08-03,COMPLETED,NA,NA,NA,NA,NA,2013-08-03,Y,Non-white,>64,"NA",NA,NA,NA,NA
NA,CDISCPILOT01,01-701-1203,NA,NA,NA,NA,NA,NA,NA,NA,NA,NA,NA,2013-02-02,DEATH,Death,Reference Event,NA,NA,NA,NA,NA,N,0,Y,NA,8,1203,2013-02-02,2013-08-03,2013-02-02,2013-08-03,NA,2013-08-03T10:10,NA,NA,701,81,YEARS,F,BLACK OR AFRICAN AMERICAN,NOT HISPANIC OR LATINO,Pbo,Placebo,Pbo,Placebo,USA,2013-01-25,-8,Placebo,Placebo,2013-02-02T00:00:00Z,H,2013-08-03T23:59:59Z,H,2013-02-02,2013-08-03,183,NA,2013-08-03,COMPLETED,NA,NA,NA,NA,NA,2013-08-03,Y,Non-white,>64,"NA",NA,NA,NA,NA
NA,CDISCPILOT01,01-701-1203,NA,NA,NA,NA,NA,NA,NA,NA,NA,NA,NA,2013-02-02,LSTA,Last Disease Assessment by Investigator,Tumor Response,Investigator,RECIST 1.1,NA,NA,NA,NA,NA,Y,NA,9,1203,2013-02-02,2013-08-03,2013-02-02,2013-08-03,NA,2013-08-03T10:10,NA,NA,701,81,YEARS,F,BLACK OR AFRICAN AMERICAN,NOT HISPANIC OR LATINO,Pbo,Placebo,Pbo,Placebo,USA,2013-01-25,-8,Placebo,Placebo,2013-02-02T00:00:00Z,H,2013-08-03T23:59:59Z,H,2013-02-02,2013-08-03,183,NA,2013-08-03,COMPLETED,NA,NA,NA,NA,NA,2013-08-03,Y,Non-white,>64,"NA",NA,NA,NA,NA
NA,CDISCPILOT01,01-701-1203,NA,NA,NA,NA,NA,NA,NA,NA,NA,NA,NA,2013-02-02,MDIS,Measurable Disease at Baseline by Investigator,NA,Investigator,RECIST 1.1,NA,NA,NA,N,0,Y,NA,10,1203,2013-02-02,2013-08-03,2013-02-02,2013-08-03,NA,2013-08-03T10:10,NA,NA,701,81,YEARS,F,BLACK OR AFRICAN AMERICAN,NOT HISPANIC OR LATINO,Pbo,Placebo,Pbo,Placebo,USA,2013-01-25,-8,Placebo,Placebo,2013-02-02T00:00:00Z,H,2013-08-03T23:59:59Z,H,2013-02-02,2013-08-03,183,NA,2013-08-03,COMPLETED,NA,NA,NA,NA,NA,2013-08-03,Y,Non-white,>64,"NA",NA,NA,NA,NA
NA,CDISCPILOT01,01-701-1203,NA,NA,NA,NA,NA,NA,NA,NA,NA,NA,NA,2013-02-02,PD,Disease Progression by Investigator,Tumor Response,Investigator,RECIST 1.1,NA,NA,NA,N,0,Y,NA,11,1203,2013-02-02,2013-08-03,2013-02-02,2013-08-03,NA,2013-08-03T10:10,NA,NA,701,81,YEARS,F,BLACK OR AFRICAN AMERICAN,NOT HISPANIC OR LATINO,Pbo,Placebo,Pbo,Placebo,USA,2013-01-25,-8,Placebo,Placebo,2013-02-02T00:00:00Z,H,2013-08-03T23:59:59Z,H,2013-02-02,2013-08-03,183,NA,2013-08-03,COMPLETED,NA,NA,NA,NA,NA,2013-08-03,Y,Non-white,>64,"NA",NA,NA,NA,NA
NA,CDISCPILOT01,01-701-1203,NA,NA,NA,NA,NA,NA,NA,NA,NA,NA,NA,2013-02-02,RSP,Response by Investigator (confirmation not required),Tumor Response,Investigator,RECIST 1.1,NA,NA,NA,N,0,Y,NA,12,1203,2013-02-02,2013-08-03,2013-02-02,2013-08-03,NA,2013-08-03T10:10,NA,NA,701,81,YEARS,F,BLACK OR AFRICAN AMERICAN,NOT HISPANIC OR LATINO,Pbo,Placebo,Pbo,Placebo,USA,2013-01-25,-8,Placebo,Placebo,2013-02-02T00:00:00Z,H,2013-08-03T23:59:59Z,H,2013-02-02,2013-08-03,183,NA,2013-08-03,COMPLETED,NA,NA,NA,NA,NA,2013-08-03,Y,Non-white,>64,"NA",NA,NA,NA,NA
NA,CDISCPILOT01,01-701-1211,NA,NA,NA,NA,NA,NA,NA,NA,NA,NA,NA,2012-11-15,BCP,Best Overall Response of CR/PR by Investigator (confirmation not required),Tumor Response,Investigator,RECIST 1.1,NA,NA,NA,N,0,Y,NA,1,1211,2012-11-15,2013-01-14,2012-11-15,2013-01-12,NA,2013-01-14,2013-01-14,Y,701,76,YEARS,F,WHITE,NOT HISPANIC OR LATINO,Xan_Lo,Xanomeline Low Dose,Xan_Lo,Xanomeline Low Dose,USA,2012-10-30,-16,Xanomeline Low Dose,Xanomeline Low Dose,2012-11-15T00:00:00Z,H,2013-01-12T23:59:59Z,H,2012-11-15,2013-01-12,59,NA,2013-01-14,DISCONTINUED,NA,2013-01-14,NA,61,2,2013-01-14,Y,White,>64,"NA",<= 30,Y,NA,NA
NA,CDISCPILOT01,01-701-1211,NA,NA,NA,NA,NA,NA,NA,NA,NA,NA,NA,2012-11-15,BOR,Best Overall Response by Investigator (confirmation not required),Tumor Response,Investigator,RECIST 1.1,NA,NA,NA,MISSING,7,Y,NA,2,1211,2012-11-15,2013-01-14,2012-11-15,2013-01-12,NA,2013-01-14,2013-01-14,Y,701,76,YEARS,F,WHITE,NOT HISPANIC OR LATINO,Xan_Lo,Xanomeline Low Dose,Xan_Lo,Xanomeline Low Dose,USA,2012-10-30,-16,Xanomeline Low Dose,Xanomeline Low Dose,2012-11-15T00:00:00Z,H,2013-01-12T23:59:59Z,H,2012-11-15,2013-01-12,59,NA,2013-01-14,DISCONTINUED,NA,2013-01-14,NA,61,2,2013-01-14,Y,White,>64,"NA",<= 30,Y,NA,NA
NA,CDISCPILOT01,01-701-1211,NA,NA,NA,NA,NA,NA,NA,NA,NA,NA,NA,2012-11-15,CB,Clinical Benefit by Investigator (confirmation for response not required),Tumor Response,Investigator,RECIST 1.1,NA,NA,NA,N,0,Y,NA,3,1211,2012-11-15,2013-01-14,2012-11-15,2013-01-12,NA,2013-01-14,2013-01-14,Y,701,76,YEARS,F,WHITE,NOT HISPANIC OR LATINO,Xan_Lo,Xanomeline Low Dose,Xan_Lo,Xanomeline Low Dose,USA,2012-10-30,-16,Xanomeline Low Dose,Xanomeline Low Dose,2012-11-15T00:00:00Z,H,2013-01-12T23:59:59Z,H,2012-11-15,2013-01-12,59,NA,2013-01-14,DISCONTINUED,NA,2013-01-14,NA,61,2,2013-01-14,Y,White,>64,"NA",<= 30,Y,NA,NA
NA,CDISCPILOT01,01-701-1211,NA,NA,NA,NA,NA,NA,NA,NA,NA,NA,NA,2012-11-15,CBCP,Best Confirmed Overall Response of CR/PR by Investigator,Tumor Response,Investigator,RECIST 1.1,NA,NA,NA,N,0,Y,NA,4,1211,2012-11-15,2013-01-14,2012-11-15,2013-01-12,NA,2013-01-14,2013-01-14,Y,701,76,YEARS,F,WHITE,NOT HISPANIC OR LATINO,Xan_Lo,Xanomeline Low Dose,Xan_Lo,Xanomeline Low Dose,USA,2012-10-30,-16,Xanomeline Low Dose,Xanomeline Low Dose,2012-11-15T00:00:00Z,H,2013-01-12T23:59:59Z,H,2012-11-15,2013-01-12,59,NA,2013-01-14,DISCONTINUED,NA,2013-01-14,NA,61,2,2013-01-14,Y,White,>64,"NA",<= 30,Y,NA,NA
NA,CDISCPILOT01,01-701-1211,NA,NA,NA,NA,NA,NA,NA,NA,NA,NA,NA,2012-11-15,CBOR,Best Confirmed Overall Response by Investigator,Tumor Response,Investigator,RECIST 1.1,NA,NA,NA,MISSING,7,Y,NA,5,1211,2012-11-15,2013-01-14,2012-11-15,2013-01-12,NA,2013-01-14,2013-01-14,Y,701,76,YEARS,F,WHITE,NOT HISPANIC OR LATINO,Xan_Lo,Xanomeline Low Dose,Xan_Lo,Xanomeline Low Dose,USA,2012-10-30,-16,Xanomeline Low Dose,Xanomeline Low Dose,2012-11-15T00:00:00Z,H,2013-01-12T23:59:59Z,H,2012-11-15,2013-01-12,59,NA,2013-01-14,DISCONTINUED,NA,2013-01-14,NA,61,2,2013-01-14,Y,White,>64,"NA",<= 30,Y,NA,NA
NA,CDISCPILOT01,01-701-1211,NA,NA,NA,NA,NA,NA,NA,NA,NA,NA,NA,2012-11-15,CCB,Confirmed Clinical Benefit by Investigator,Tumor Response,Investigator,RECIST 1.1,NA,NA,NA,N,0,Y,NA,6,1211,2012-11-15,2013-01-14,2012-11-15,2013-01-12,NA,2013-01-14,2013-01-14,Y,701,76,YEARS,F,WHITE,NOT HISPANIC OR LATINO,Xan_Lo,Xanomeline Low Dose,Xan_Lo,Xanomeline Low Dose,USA,2012-10-30,-16,Xanomeline Low Dose,Xanomeline Low Dose,2012-11-15T00:00:00Z,H,2013-01-12T23:59:59Z,H,2012-11-15,2013-01-12,59,NA,2013-01-14,DISCONTINUED,NA,2013-01-14,NA,61,2,2013-01-14,Y,White,>64,"NA",<= 30,Y,NA,NA
NA,CDISCPILOT01,01-701-1211,NA,NA,NA,NA,NA,NA,NA,NA,NA,NA,NA,2012-11-15,CRSP,Confirmed Response by Investigator,Tumor Response,Investigator,RECIST 1.1,NA,NA,NA,N,0,Y,NA,7,1211,2012-11-15,2013-01-14,2012-11-15,2013-01-12,NA,2013-01-14,2013-01-14,Y,701,76,YEARS,F,WHITE,NOT HISPANIC OR LATINO,Xan_Lo,Xanomeline Low Dose,Xan_Lo,Xanomeline Low Dose,USA,2012-10-30,-16,Xanomeline Low Dose,Xanomeline Low Dose,2012-11-15T00:00:00Z,H,2013-01-12T23:59:59Z,H,2012-11-15,2013-01-12,59,NA,2013-01-14,DISCONTINUED,NA,2013-01-14,NA,61,2,2013-01-14,Y,White,>64,"NA",<= 30,Y,NA,NA
NA,CDISCPILOT01,01-701-1211,NA,NA,NA,NA,NA,NA,NA,NA,NA,NA,NA,2012-11-15,DEATH,Death,Reference Event,NA,NA,2013-01-14,NA,NA,Y,1,Y,NA,8,1211,2012-11-15,2013-01-14,2012-11-15,2013-01-12,NA,2013-01-14,2013-01-14,Y,701,76,YEARS,F,WHITE,NOT HISPANIC OR LATINO,Xan_Lo,Xanomeline Low Dose,Xan_Lo,Xanomeline Low Dose,USA,2012-10-30,-16,Xanomeline Low Dose,Xanomeline Low Dose,2012-11-15T00:00:00Z,H,2013-01-12T23:59:59Z,H,2012-11-15,2013-01-12,59,NA,2013-01-14,DISCONTINUED,NA,2013-01-14,NA,61,2,2013-01-14,Y,White,>64,"NA",<= 30,Y,NA,NA
NA,CDISCPILOT01,01-701-1211,NA,NA,NA,NA,NA,NA,NA,NA,NA,NA,NA,2012-11-15,LSTA,Last Disease Assessment by Investigator,Tumor Response,Investigator,RECIST 1.1,NA,NA,NA,NA,NA,Y,NA,9,1211,2012-11-15,2013-01-14,2012-11-15,2013-01-12,NA,2013-01-14,2013-01-14,Y,701,76,YEARS,F,WHITE,NOT HISPANIC OR LATINO,Xan_Lo,Xanomeline Low Dose,Xan_Lo,Xanomeline Low Dose,USA,2012-10-30,-16,Xanomeline Low Dose,Xanomeline Low Dose,2012-11-15T00:00:00Z,H,2013-01-12T23:59:59Z,H,2012-11-15,2013-01-12,59,NA,2013-01-14,DISCONTINUED,NA,2013-01-14,NA,61,2,2013-01-14,Y,White,>64,"NA",<= 30,Y,NA,NA
NA,CDISCPILOT01,01-701-1211,NA,NA,NA,NA,NA,NA,NA,NA,NA,NA,NA,2012-11-15,MDIS,Measurable Disease at Baseline by Investigator,NA,Investigator,RECIST 1.1,NA,NA,NA,N,0,Y,NA,10,1211,2012-11-15,2013-01-14,2012-11-15,2013-01-12,NA,2013-01-14,2013-01-14,Y,701,76,YEARS,F,WHITE,NOT HISPANIC OR LATINO,Xan_Lo,Xanomeline Low Dose,Xan_Lo,Xanomeline Low Dose,USA,2012-10-30,-16,Xanomeline Low Dose,Xanomeline Low Dose,2012-11-15T00:00:00Z,H,2013-01-12T23:59:59Z,H,2012-11-15,2013-01-12,59,NA,2013-01-14,DISCONTINUED,NA,2013-01-14,NA,61,2,2013-01-14,Y,White,>64,"NA",<= 30,Y,NA,NA
NA,CDISCPILOT01,01-701-1211,NA,NA,NA,NA,NA,NA,NA,NA,NA,NA,NA,2012-11-15,PD,Disease Progression by Investigator,Tumor Response,Investigator,RECIST 1.1,NA,NA,NA,N,0,Y,NA,11,1211,2012-11-15,2013-01-14,2012-11-15,2013-01-12,NA,2013-01-14,2013-01-14,Y,701,76,YEARS,F,WHITE,NOT HISPANIC OR LATINO,Xan_Lo,Xanomeline Low Dose,Xan_Lo,Xanomeline Low Dose,USA,2012-10-30,-16,Xanomeline Low Dose,Xanomeline Low Dose,2012-11-15T00:00:00Z,H,2013-01-12T23:59:59Z,H,2012-11-15,2013-01-12,59,NA,2013-01-14,DISCONTINUED,NA,2013-01-14,NA,61,2,2013-01-14,Y,White,>64,"NA",<= 30,Y,NA,NA
NA,CDISCPILOT01,01-701-1211,NA,NA,NA,NA,NA,NA,NA,NA,NA,NA,NA,2012-11-15,RSP,Response by Investigator (confirmation not required),Tumor Response,Investigator,RECIST 1.1,NA,NA,NA,N,0,Y,NA,12,1211,2012-11-15,2013-01-14,2012-11-15,2013-01-12,NA,2013-01-14,2013-01-14,Y,701,76,YEARS,F,WHITE,NOT HISPANIC OR LATINO,Xan_Lo,Xanomeline Low Dose,Xan_Lo,Xanomeline Low Dose,USA,2012-10-30,-16,Xanomeline Low Dose,Xanomeline Low Dose,2012-11-15T00:00:00Z,H,2013-01-12T23:59:59Z,H,2012-11-15,2013-01-12,59,NA,2013-01-14,DISCONTINUED,NA,2013-01-14,NA,61,2,2013-01-14,Y,White,>64,"NA",<= 30,Y,NA,NA
NA,CDISCPILOT01,01-701-1234,NA,NA,NA,NA,NA,NA,NA,NA,NA,NA,NA,2013-03-30,BCP,Best Overall Response of CR/PR by Investigator (confirmation not required),Tumor Response,Investigator,RECIST 1.1,NA,NA,NA,N,0,Y,NA,1,1234,2013-03-30,2013-09-22,2013-03-30,2013-09-22,NA,2013-09-22T09:25,NA,NA,701,69,YEARS,M,WHITE,NOT HISPANIC OR LATINO,Pbo,Placebo,Pbo,Placebo,USA,2013-03-20,-10,Placebo,Placebo,2013-03-30T00:00:00Z,H,2013-09-22T23:59:59Z,H,2013-03-30,2013-09-22,177,NA,2013-09-22,COMPLETED,NA,NA,NA,NA,NA,2013-09-22,Y,White,>64,"NA",NA,NA,NA,NA
NA,CDISCPILOT01,01-701-1234,NA,NA,NA,NA,NA,NA,NA,NA,NA,NA,NA,2013-03-30,BOR,Best Overall Response by Investigator (confirmation not required),Tumor Response,Investigator,RECIST 1.1,NA,NA,NA,MISSING,7,Y,NA,2,1234,2013-03-30,2013-09-22,2013-03-30,2013-09-22,NA,2013-09-22T09:25,NA,NA,701,69,YEARS,M,WHITE,NOT HISPANIC OR LATINO,Pbo,Placebo,Pbo,Placebo,USA,2013-03-20,-10,Placebo,Placebo,2013-03-30T00:00:00Z,H,2013-09-22T23:59:59Z,H,2013-03-30,2013-09-22,177,NA,2013-09-22,COMPLETED,NA,NA,NA,NA,NA,2013-09-22,Y,White,>64,"NA",NA,NA,NA,NA
NA,CDISCPILOT01,01-701-1234,NA,NA,NA,NA,NA,NA,NA,NA,NA,NA,NA,2013-03-30,CB,Clinical Benefit by Investigator (confirmation for response not required),Tumor Response,Investigator,RECIST 1.1,NA,NA,NA,N,0,Y,NA,3,1234,2013-03-30,2013-09-22,2013-03-30,2013-09-22,NA,2013-09-22T09:25,NA,NA,701,69,YEARS,M,WHITE,NOT HISPANIC OR LATINO,Pbo,Placebo,Pbo,Placebo,USA,2013-03-20,-10,Placebo,Placebo,2013-03-30T00:00:00Z,H,2013-09-22T23:59:59Z,H,2013-03-30,2013-09-22,177,NA,2013-09-22,COMPLETED,NA,NA,NA,NA,NA,2013-09-22,Y,White,>64,"NA",NA,NA,NA,NA
NA,CDISCPILOT01,01-701-1234,NA,NA,NA,NA,NA,NA,NA,NA,NA,NA,NA,2013-03-30,CBCP,Best Confirmed Overall Response of CR/PR by Investigator,Tumor Response,Investigator,RECIST 1.1,NA,NA,NA,N,0,Y,NA,4,1234,2013-03-30,2013-09-22,2013-03-30,2013-09-22,NA,2013-09-22T09:25,NA,NA,701,69,YEARS,M,WHITE,NOT HISPANIC OR LATINO,Pbo,Placebo,Pbo,Placebo,USA,2013-03-20,-10,Placebo,Placebo,2013-03-30T00:00:00Z,H,2013-09-22T23:59:59Z,H,2013-03-30,2013-09-22,177,NA,2013-09-22,COMPLETED,NA,NA,NA,NA,NA,2013-09-22,Y,White,>64,"NA",NA,NA,NA,NA
NA,CDISCPILOT01,01-701-1234,NA,NA,NA,NA,NA,NA,NA,NA,NA,NA,NA,2013-03-30,CBOR,Best Confirmed Overall Response by Investigator,Tumor Response,Investigator,RECIST 1.1,NA,NA,NA,MISSING,7,Y,NA,5,1234,2013-03-30,2013-09-22,2013-03-30,2013-09-22,NA,2013-09-22T09:25,NA,NA,701,69,YEARS,M,WHITE,NOT HISPANIC OR LATINO,Pbo,Placebo,Pbo,Placebo,USA,2013-03-20,-10,Placebo,Placebo,2013-03-30T00:00:00Z,H,2013-09-22T23:59:59Z,H,2013-03-30,2013-09-22,177,NA,2013-09-22,COMPLETED,NA,NA,NA,NA,NA,2013-09-22,Y,White,>64,"NA",NA,NA,NA,NA
NA,CDISCPILOT01,01-701-1234,NA,NA,NA,NA,NA,NA,NA,NA,NA,NA,NA,2013-03-30,CCB,Confirmed Clinical Benefit by Investigator,Tumor Response,Investigator,RECIST 1.1,NA,NA,NA,N,0,Y,NA,6,1234,2013-03-30,2013-09-22,2013-03-30,2013-09-22,NA,2013-09-22T09:25,NA,NA,701,69,YEARS,M,WHITE,NOT HISPANIC OR LATINO,Pbo,Placebo,Pbo,Placebo,USA,2013-03-20,-10,Placebo,Placebo,2013-03-30T00:00:00Z,H,2013-09-22T23:59:59Z,H,2013-03-30,2013-09-22,177,NA,2013-09-22,COMPLETED,NA,NA,NA,NA,NA,2013-09-22,Y,White,>64,"NA",NA,NA,NA,NA
NA,CDISCPILOT01,01-701-1234,NA,NA,NA,NA,NA,NA,NA,NA,NA,NA,NA,2013-03-30,CRSP,Confirmed Response by Investigator,Tumor Response,Investigator,RECIST 1.1,NA,NA,NA,N,0,Y,NA,7,1234,2013-03-30,2013-09-22,2013-03-30,2013-09-22,NA,2013-09-22T09:25,NA,NA,701,69,YEARS,M,WHITE,NOT HISPANIC OR LATINO,Pbo,Placebo,Pbo,Placebo,USA,2013-03-20,-10,Placebo,Placebo,2013-03-30T00:00:00Z,H,2013-09-22T23:59:59Z,H,2013-03-30,2013-09-22,177,NA,2013-09-22,COMPLETED,NA,NA,NA,NA,NA,2013-09-22,Y,White,>64,"NA",NA,NA,NA,NA
NA,CDISCPILOT01,01-701-1234,NA,NA,NA,NA,NA,NA,NA,NA,NA,NA,NA,2013-03-30,DEATH,Death,Reference Event,NA,NA,NA,NA,NA,N,0,Y,NA,8,1234,2013-03-30,2013-09-22,2013-03-30,2013-09-22,NA,2013-09-22T09:25,NA,NA,701,69,YEARS,M,WHITE,NOT HISPANIC OR LATINO,Pbo,Placebo,Pbo,Placebo,USA,2013-03-20,-10,Placebo,Placebo,2013-03-30T00:00:00Z,H,2013-09-22T23:59:59Z,H,2013-03-30,2013-09-22,177,NA,2013-09-22,COMPLETED,NA,NA,NA,NA,NA,2013-09-22,Y,White,>64,"NA",NA,NA,NA,NA
NA,CDISCPILOT01,01-701-1234,NA,NA,NA,NA,NA,NA,NA,NA,NA,NA,NA,2013-03-30,LSTA,Last Disease Assessment by Investigator,Tumor Response,Investigator,RECIST 1.1,NA,NA,NA,NA,NA,Y,NA,9,1234,2013-03-30,2013-09-22,2013-03-30,2013-09-22,NA,2013-09-22T09:25,NA,NA,701,69,YEARS,M,WHITE,NOT HISPANIC OR LATINO,Pbo,Placebo,Pbo,Placebo,USA,2013-03-20,-10,Placebo,Placebo,2013-03-30T00:00:00Z,H,2013-09-22T23:59:59Z,H,2013-03-30,2013-09-22,177,NA,2013-09-22,COMPLETED,NA,NA,NA,NA,NA,2013-09-22,Y,White,>64,"NA",NA,NA,NA,NA
NA,CDISCPILOT01,01-701-1234,NA,NA,NA,NA,NA,NA,NA,NA,NA,NA,NA,2013-03-30,MDIS,Measurable Disease at Baseline by Investigator,NA,Investigator,RECIST 1.1,NA,NA,NA,N,0,Y,NA,10,1234,2013-03-30,2013-09-22,2013-03-30,2013-09-22,NA,2013-09-22T09:25,NA,NA,701,69,YEARS,M,WHITE,NOT HISPANIC OR LATINO,Pbo,Placebo,Pbo,Placebo,USA,2013-03-20,-10,Placebo,Placebo,2013-03-30T00:00:00Z,H,2013-09-22T23:59:59Z,H,2013-03-30,2013-09-22,177,NA,2013-09-22,COMPLETED,NA,NA,NA,NA,NA,2013-09-22,Y,White,>64,"NA",NA,NA,NA,NA
NA,CDISCPILOT01,01-701-1234,NA,NA,NA,NA,NA,NA,NA,NA,NA,NA,NA,2013-03-30,PD,Disease Progression by Investigator,Tumor Response,Investigator,RECIST 1.1,NA,NA,NA,N,0,Y,NA,11,1234,2013-03-30,2013-09-22,2013-03-30,2013-09-22,NA,2013-09-22T09:25,NA,NA,701,69,YEARS,M,WHITE,NOT HISPANIC OR LATINO,Pbo,Placebo,Pbo,Placebo,USA,2013-03-20,-10,Placebo,Placebo,2013-03-30T00:00:00Z,H,2013-09-22T23:59:59Z,H,2013-03-30,2013-09-22,177,NA,2013-09-22,COMPLETED,NA,NA,NA,NA,NA,2013-09-22,Y,White,>64,"NA",NA,NA,NA,NA
NA,CDISCPILOT01,01-701-1234,NA,NA,NA,NA,NA,NA,NA,NA,NA,NA,NA,2013-03-30,RSP,Response by Investigator (confirmation not required),Tumor Response,Investigator,RECIST 1.1,NA,NA,NA,N,0,Y,NA,12,1234,2013-03-30,2013-09-22,2013-03-30,2013-09-22,NA,2013-09-22T09:25,NA,NA,701,69,YEARS,M,WHITE,NOT HISPANIC OR LATINO,Pbo,Placebo,Pbo,Placebo,USA,2013-03-20,-10,Placebo,Placebo,2013-03-30T00:00:00Z,H,2013-09-22T23:59:59Z,H,2013-03-30,2013-09-22,177,NA,2013-09-22,COMPLETED,NA,NA,NA,NA,NA,2013-09-22,Y,White,>64,"NA",NA,NA,NA,NA
NA,CDISCPILOT01,01-701-1239,NA,NA,NA,NA,NA,NA,NA,NA,NA,NA,NA,2014-01-11,BCP,Best Overall Response of CR/PR by Investigator (confirmation not required),Tumor Response,Investigator,RECIST 1.1,NA,NA,NA,N,0,Y,NA,1,1239,2014-01-11,2014-07-11,2014-01-11,2014-07-10,NA,2014-07-11T15:40,NA,NA,701,56,YEARS,M,WHITE,HISPANIC OR LATINO,Xan_Hi,Xanomeline High Dose,Xan_Hi,Xanomeline High Dose,USA,2013-12-28,-14,Xanomeline High Dose,Xanomeline High Dose,2014-01-11T00:00:00Z,H,2014-07-10T23:59:59Z,H,2014-01-11,2014-07-10,181,NA,2014-07-11,COMPLETED,NA,NA,NA,NA,NA,2014-07-11,Y,White,18-64,"NA",NA,NA,NA,NA
NA,CDISCPILOT01,01-701-1239,NA,NA,NA,NA,NA,NA,NA,NA,NA,NA,NA,2014-01-11,BOR,Best Overall Response by Investigator (confirmation not required),Tumor Response,Investigator,RECIST 1.1,NA,NA,NA,MISSING,7,Y,NA,2,1239,2014-01-11,2014-07-11,2014-01-11,2014-07-10,NA,2014-07-11T15:40,NA,NA,701,56,YEARS,M,WHITE,HISPANIC OR LATINO,Xan_Hi,Xanomeline High Dose,Xan_Hi,Xanomeline High Dose,USA,2013-12-28,-14,Xanomeline High Dose,Xanomeline High Dose,2014-01-11T00:00:00Z,H,2014-07-10T23:59:59Z,H,2014-01-11,2014-07-10,181,NA,2014-07-11,COMPLETED,NA,NA,NA,NA,NA,2014-07-11,Y,White,18-64,"NA",NA,NA,NA,NA
NA,CDISCPILOT01,01-701-1239,NA,NA,NA,NA,NA,NA,NA,NA,NA,NA,NA,2014-01-11,CB,Clinical Benefit by Investigator (confirmation for response not required),Tumor Response,Investigator,RECIST 1.1,NA,NA,NA,N,0,Y,NA,3,1239,2014-01-11,2014-07-11,2014-01-11,2014-07-10,NA,2014-07-11T15:40,NA,NA,701,56,YEARS,M,WHITE,HISPANIC OR LATINO,Xan_Hi,Xanomeline High Dose,Xan_Hi,Xanomeline High Dose,USA,2013-12-28,-14,Xanomeline High Dose,Xanomeline High Dose,2014-01-11T00:00:00Z,H,2014-07-10T23:59:59Z,H,2014-01-11,2014-07-10,181,NA,2014-07-11,COMPLETED,NA,NA,NA,NA,NA,2014-07-11,Y,White,18-64,"NA",NA,NA,NA,NA
NA,CDISCPILOT01,01-701-1239,NA,NA,NA,NA,NA,NA,NA,NA,NA,NA,NA,2014-01-11,CBCP,Best Confirmed Overall Response of CR/PR by Investigator,Tumor Response,Investigator,RECIST 1.1,NA,NA,NA,N,0,Y,NA,4,1239,2014-01-11,2014-07-11,2014-01-11,2014-07-10,NA,2014-07-11T15:40,NA,NA,701,56,YEARS,M,WHITE,HISPANIC OR LATINO,Xan_Hi,Xanomeline High Dose,Xan_Hi,Xanomeline High Dose,USA,2013-12-28,-14,Xanomeline High Dose,Xanomeline High Dose,2014-01-11T00:00:00Z,H,2014-07-10T23:59:59Z,H,2014-01-11,2014-07-10,181,NA,2014-07-11,COMPLETED,NA,NA,NA,NA,NA,2014-07-11,Y,White,18-64,"NA",NA,NA,NA,NA
NA,CDISCPILOT01,01-701-1239,NA,NA,NA,NA,NA,NA,NA,NA,NA,NA,NA,2014-01-11,CBOR,Best Confirmed Overall Response by Investigator,Tumor Response,Investigator,RECIST 1.1,NA,NA,NA,MISSING,7,Y,NA,5,1239,2014-01-11,2014-07-11,2014-01-11,2014-07-10,NA,2014-07-11T15:40,NA,NA,701,56,YEARS,M,WHITE,HISPANIC OR LATINO,Xan_Hi,Xanomeline High Dose,Xan_Hi,Xanomeline High Dose,USA,2013-12-28,-14,Xanomeline High Dose,Xanomeline High Dose,2014-01-11T00:00:00Z,H,2014-07-10T23:59:59Z,H,2014-01-11,2014-07-10,181,NA,2014-07-11,COMPLETED,NA,NA,NA,NA,NA,2014-07-11,Y,White,18-64,"NA",NA,NA,NA,NA
NA,CDISCPILOT01,01-701-1239,NA,NA,NA,NA,NA,NA,NA,NA,NA,NA,NA,2014-01-11,CCB,Confirmed Clinical Benefit by Investigator,Tumor Response,Investigator,RECIST 1.1,NA,NA,NA,N,0,Y,NA,6,1239,2014-01-11,2014-07-11,2014-01-11,2014-07-10,NA,2014-07-11T15:40,NA,NA,701,56,YEARS,M,WHITE,HISPANIC OR LATINO,Xan_Hi,Xanomeline High Dose,Xan_Hi,Xanomeline High Dose,USA,2013-12-28,-14,Xanomeline High Dose,Xanomeline High Dose,2014-01-11T00:00:00Z,H,2014-07-10T23:59:59Z,H,2014-01-11,2014-07-10,181,NA,2014-07-11,COMPLETED,NA,NA,NA,NA,NA,2014-07-11,Y,White,18-64,"NA",NA,NA,NA,NA
NA,CDISCPILOT01,01-701-1239,NA,NA,NA,NA,NA,NA,NA,NA,NA,NA,NA,2014-01-11,CRSP,Confirmed Response by Investigator,Tumor Response,Investigator,RECIST 1.1,NA,NA,NA,N,0,Y,NA,7,1239,2014-01-11,2014-07-11,2014-01-11,2014-07-10,NA,2014-07-11T15:40,NA,NA,701,56,YEARS,M,WHITE,HISPANIC OR LATINO,Xan_Hi,Xanomeline High Dose,Xan_Hi,Xanomeline High Dose,USA,2013-12-28,-14,Xanomeline High Dose,Xanomeline High Dose,2014-01-11T00:00:00Z,H,2014-07-10T23:59:59Z,H,2014-01-11,2014-07-10,181,NA,2014-07-11,COMPLETED,NA,NA,NA,NA,NA,2014-07-11,Y,White,18-64,"NA",NA,NA,NA,NA
NA,CDISCPILOT01,01-701-1239,NA,NA,NA,NA,NA,NA,NA,NA,NA,NA,NA,2014-01-11,DEATH,Death,Reference Event,NA,NA,NA,NA,NA,N,0,Y,NA,8,1239,2014-01-11,2014-07-11,2014-01-11,2014-07-10,NA,2014-07-11T15:40,NA,NA,701,56,YEARS,M,WHITE,HISPANIC OR LATINO,Xan_Hi,Xanomeline High Dose,Xan_Hi,Xanomeline High Dose,USA,2013-12-28,-14,Xanomeline High Dose,Xanomeline High Dose,2014-01-11T00:00:00Z,H,2014-07-10T23:59:59Z,H,2014-01-11,2014-07-10,181,NA,2014-07-11,COMPLETED,NA,NA,NA,NA,NA,2014-07-11,Y,White,18-64,"NA",NA,NA,NA,NA
NA,CDISCPILOT01,01-701-1239,NA,NA,NA,NA,NA,NA,NA,NA,NA,NA,NA,2014-01-11,LSTA,Last Disease Assessment by Investigator,Tumor Response,Investigator,RECIST 1.1,NA,NA,NA,NA,NA,Y,NA,9,1239,2014-01-11,2014-07-11,2014-01-11,2014-07-10,NA,2014-07-11T15:40,NA,NA,701,56,YEARS,M,WHITE,HISPANIC OR LATINO,Xan_Hi,Xanomeline High Dose,Xan_Hi,Xanomeline High Dose,USA,2013-12-28,-14,Xanomeline High Dose,Xanomeline High Dose,2014-01-11T00:00:00Z,H,2014-07-10T23:59:59Z,H,2014-01-11,2014-07-10,181,NA,2014-07-11,COMPLETED,NA,NA,NA,NA,NA,2014-07-11,Y,White,18-64,"NA",NA,NA,NA,NA
NA,CDISCPILOT01,01-701-1239,NA,NA,NA,NA,NA,NA,NA,NA,NA,NA,NA,2014-01-11,MDIS,Measurable Disease at Baseline by Investigator,NA,Investigator,RECIST 1.1,NA,NA,NA,N,0,Y,NA,10,1239,2014-01-11,2014-07-11,2014-01-11,2014-07-10,NA,2014-07-11T15:40,NA,NA,701,56,YEARS,M,WHITE,HISPANIC OR LATINO,Xan_Hi,Xanomeline High Dose,Xan_Hi,Xanomeline High Dose,USA,2013-12-28,-14,Xanomeline High Dose,Xanomeline High Dose,2014-01-11T00:00:00Z,H,2014-07-10T23:59:59Z,H,2014-01-11,2014-07-10,181,NA,2014-07-11,COMPLETED,NA,NA,NA,NA,NA,2014-07-11,Y,White,18-64,"NA",NA,NA,NA,NA
NA,CDISCPILOT01,01-701-1239,NA,NA,NA,NA,NA,NA,NA,NA,NA,NA,NA,2014-01-11,PD,Disease Progression by Investigator,Tumor Response,Investigator,RECIST 1.1,NA,NA,NA,N,0,Y,NA,11,1239,2014-01-11,2014-07-11,2014-01-11,2014-07-10,NA,2014-07-11T15:40,NA,NA,701,56,YEARS,M,WHITE,HISPANIC OR LATINO,Xan_Hi,Xanomeline High Dose,Xan_Hi,Xanomeline High Dose,USA,2013-12-28,-14,Xanomeline High Dose,Xanomeline High Dose,2014-01-11T00:00:00Z,H,2014-07-10T23:59:59Z,H,2014-01-11,2014-07-10,181,NA,2014-07-11,COMPLETED,NA,NA,NA,NA,NA,2014-07-11,Y,White,18-64,"NA",NA,NA,NA,NA
NA,CDISCPILOT01,01-701-1239,NA,NA,NA,NA,NA,NA,NA,NA,NA,NA,NA,2014-01-11,RSP,Response by Investigator (confirmation not required),Tumor Response,Investigator,RECIST 1.1,NA,NA,NA,N,0,Y,NA,12,1239,2014-01-11,2014-07-11,2014-01-11,2014-07-10,NA,2014-07-11T15:40,NA,NA,701,56,YEARS,M,WHITE,HISPANIC OR LATINO,Xan_Hi,Xanomeline High Dose,Xan_Hi,Xanomeline High Dose,USA,2013-12-28,-14,Xanomeline High Dose,Xanomeline High Dose,2014-01-11T00:00:00Z,H,2014-07-10T23:59:59Z,H,2014-01-11,2014-07-10,181,NA,2014-07-11,COMPLETED,NA,NA,NA,NA,NA,2014-07-11,Y,White,18-64,"NA",NA,NA,NA,NA
NA,CDISCPILOT01,01-701-1240,NA,NA,NA,NA,NA,NA,NA,NA,NA,NA,NA,NA,BCP,Best Overall Response of CR/PR by Investigator (confirmation not required),Tumor Response,Investigator,RECIST 1.1,NA,NA,NA,N,0,Y,NA,1,1240,NA,NA,NA,NA,NA,2013-09-24,NA,NA,701,57,YEARS,F,BLACK OR AFRICAN AMERICAN,NOT HISPANIC OR LATINO,Scrnfail,Screen Failure,Scrnfail,Screen Failure,USA,2013-09-22,NA,Screen Failure,Screen Failure,NA,NA,NA,NA,NA,NA,NA,2013-09-22,NA,NA,NA,NA,NA,NA,NA,NA,NA,Non-white,18-64,"NA",NA,NA,NA,NA
NA,CDISCPILOT01,01-701-1240,NA,NA,NA,NA,NA,NA,NA,NA,NA,NA,NA,NA,BOR,Best Overall Response by Investigator (confirmation not required),Tumor Response,Investigator,RECIST 1.1,NA,NA,NA,MISSING,7,Y,NA,2,1240,NA,NA,NA,NA,NA,2013-09-24,NA,NA,701,57,YEARS,F,BLACK OR AFRICAN AMERICAN,NOT HISPANIC OR LATINO,Scrnfail,Screen Failure,Scrnfail,Screen Failure,USA,2013-09-22,NA,Screen Failure,Screen Failure,NA,NA,NA,NA,NA,NA,NA,2013-09-22,NA,NA,NA,NA,NA,NA,NA,NA,NA,Non-white,18-64,"NA",NA,NA,NA,NA
NA,CDISCPILOT01,01-701-1240,NA,NA,NA,NA,NA,NA,NA,NA,NA,NA,NA,NA,CB,Clinical Benefit by Investigator (confirmation for response not required),Tumor Response,Investigator,RECIST 1.1,NA,NA,NA,N,0,Y,NA,3,1240,NA,NA,NA,NA,NA,2013-09-24,NA,NA,701,57,YEARS,F,BLACK OR AFRICAN AMERICAN,NOT HISPANIC OR LATINO,Scrnfail,Screen Failure,Scrnfail,Screen Failure,USA,2013-09-22,NA,Screen Failure,Screen Failure,NA,NA,NA,NA,NA,NA,NA,2013-09-22,NA,NA,NA,NA,NA,NA,NA,NA,NA,Non-white,18-64,"NA",NA,NA,NA,NA
NA,CDISCPILOT01,01-701-1240,NA,NA,NA,NA,NA,NA,NA,NA,NA,NA,NA,NA,CBCP,Best Confirmed Overall Response of CR/PR by Investigator,Tumor Response,Investigator,RECIST 1.1,NA,NA,NA,N,0,Y,NA,4,1240,NA,NA,NA,NA,NA,2013-09-24,NA,NA,701,57,YEARS,F,BLACK OR AFRICAN AMERICAN,NOT HISPANIC OR LATINO,Scrnfail,Screen Failure,Scrnfail,Screen Failure,USA,2013-09-22,NA,Screen Failure,Screen Failure,NA,NA,NA,NA,NA,NA,NA,2013-09-22,NA,NA,NA,NA,NA,NA,NA,NA,NA,Non-white,18-64,"NA",NA,NA,NA,NA
NA,CDISCPILOT01,01-701-1240,NA,NA,NA,NA,NA,NA,NA,NA,NA,NA,NA,NA,CBOR,Best Confirmed Overall Response by Investigator,Tumor Response,Investigator,RECIST 1.1,NA,NA,NA,MISSING,7,Y,NA,5,1240,NA,NA,NA,NA,NA,2013-09-24,NA,NA,701,57,YEARS,F,BLACK OR AFRICAN AMERICAN,NOT HISPANIC OR LATINO,Scrnfail,Screen Failure,Scrnfail,Screen Failure,USA,2013-09-22,NA,Screen Failure,Screen Failure,NA,NA,NA,NA,NA,NA,NA,2013-09-22,NA,NA,NA,NA,NA,NA,NA,NA,NA,Non-white,18-64,"NA",NA,NA,NA,NA
NA,CDISCPILOT01,01-701-1240,NA,NA,NA,NA,NA,NA,NA,NA,NA,NA,NA,NA,CCB,Confirmed Clinical Benefit by Investigator,Tumor Response,Investigator,RECIST 1.1,NA,NA,NA,N,0,Y,NA,6,1240,NA,NA,NA,NA,NA,2013-09-24,NA,NA,701,57,YEARS,F,BLACK OR AFRICAN AMERICAN,NOT HISPANIC OR LATINO,Scrnfail,Screen Failure,Scrnfail,Screen Failure,USA,2013-09-22,NA,Screen Failure,Screen Failure,NA,NA,NA,NA,NA,NA,NA,2013-09-22,NA,NA,NA,NA,NA,NA,NA,NA,NA,Non-white,18-64,"NA",NA,NA,NA,NA
NA,CDISCPILOT01,01-701-1240,NA,NA,NA,NA,NA,NA,NA,NA,NA,NA,NA,NA,CRSP,Confirmed Response by Investigator,Tumor Response,Investigator,RECIST 1.1,NA,NA,NA,N,0,Y,NA,7,1240,NA,NA,NA,NA,NA,2013-09-24,NA,NA,701,57,YEARS,F,BLACK OR AFRICAN AMERICAN,NOT HISPANIC OR LATINO,Scrnfail,Screen Failure,Scrnfail,Screen Failure,USA,2013-09-22,NA,Screen Failure,Screen Failure,NA,NA,NA,NA,NA,NA,NA,2013-09-22,NA,NA,NA,NA,NA,NA,NA,NA,NA,Non-white,18-64,"NA",NA,NA,NA,NA
NA,CDISCPILOT01,01-701-1240,NA,NA,NA,NA,NA,NA,NA,NA,NA,NA,NA,NA,DEATH,Death,Reference Event,NA,NA,NA,NA,NA,N,0,Y,NA,8,1240,NA,NA,NA,NA,NA,2013-09-24,NA,NA,701,57,YEARS,F,BLACK OR AFRICAN AMERICAN,NOT HISPANIC OR LATINO,Scrnfail,Screen Failure,Scrnfail,Screen Failure,USA,2013-09-22,NA,Screen Failure,Screen Failure,NA,NA,NA,NA,NA,NA,NA,2013-09-22,NA,NA,NA,NA,NA,NA,NA,NA,NA,Non-white,18-64,"NA",NA,NA,NA,NA
NA,CDISCPILOT01,01-701-1240,NA,NA,NA,NA,NA,NA,NA,NA,NA,NA,NA,NA,LSTA,Last Disease Assessment by Investigator,Tumor Response,Investigator,RECIST 1.1,NA,NA,NA,NA,NA,Y,NA,9,1240,NA,NA,NA,NA,NA,2013-09-24,NA,NA,701,57,YEARS,F,BLACK OR AFRICAN AMERICAN,NOT HISPANIC OR LATINO,Scrnfail,Screen Failure,Scrnfail,Screen Failure,USA,2013-09-22,NA,Screen Failure,Screen Failure,NA,NA,NA,NA,NA,NA,NA,2013-09-22,NA,NA,NA,NA,NA,NA,NA,NA,NA,Non-white,18-64,"NA",NA,NA,NA,NA
NA,CDISCPILOT01,01-701-1240,NA,NA,NA,NA,NA,NA,NA,NA,NA,NA,NA,NA,MDIS,Measurable Disease at Baseline by Investigator,NA,Investigator,RECIST 1.1,NA,NA,NA,N,0,Y,NA,10,1240,NA,NA,NA,NA,NA,2013-09-24,NA,NA,701,57,YEARS,F,BLACK OR AFRICAN AMERICAN,NOT HISPANIC OR LATINO,Scrnfail,Screen Failure,Scrnfail,Screen Failure,USA,2013-09-22,NA,Screen Failure,Screen Failure,NA,NA,NA,NA,NA,NA,NA,2013-09-22,NA,NA,NA,NA,NA,NA,NA,NA,NA,Non-white,18-64,"NA",NA,NA,NA,NA
NA,CDISCPILOT01,01-701-1240,NA,NA,NA,NA,NA,NA,NA,NA,NA,NA,NA,NA,PD,Disease Progression by Investigator,Tumor Response,Investigator,RECIST 1.1,NA,NA,NA,N,0,Y,NA,11,1240,NA,NA,NA,NA,NA,2013-09-24,NA,NA,701,57,YEARS,F,BLACK OR AFRICAN AMERICAN,NOT HISPANIC OR LATINO,Scrnfail,Screen Failure,Scrnfail,Screen Failure,USA,2013-09-22,NA,Screen Failure,Screen Failure,NA,NA,NA,NA,NA,NA,NA,2013-09-22,NA,NA,NA,NA,NA,NA,NA,NA,NA,Non-white,18-64,"NA",NA,NA,NA,NA
NA,CDISCPILOT01,01-701-1240,NA,NA,NA,NA,NA,NA,NA,NA,NA,NA,NA,NA,RSP,Response by Investigator (confirmation not required),Tumor Response,Investigator,RECIST 1.1,NA,NA,NA,N,0,Y,NA,12,1240,NA,NA,NA,NA,NA,2013-09-24,NA,NA,701,57,YEARS,F,BLACK OR AFRICAN AMERICAN,NOT HISPANIC OR LATINO,Scrnfail,Screen Failure,Scrnfail,Screen Failure,USA,2013-09-22,NA,Screen Failure,Screen Failure,NA,NA,NA,NA,NA,NA,NA,2013-09-22,NA,NA,NA,NA,NA,NA,NA,NA,NA,Non-white,18-64,"NA",NA,NA,NA,NA
NA,CDISCPILOT01,01-701-1275,NA,NA,NA,NA,NA,NA,NA,NA,NA,NA,NA,2014-02-07,BCP,Best Overall Response of CR/PR by Investigator (confirmation not required),Tumor Response,Investigator,RECIST 1.1,NA,NA,NA,N,0,Y,NA,1,1275,2014-02-07,2014-06-14,2014-02-07,2014-05-31,NA,2014-06-14T12:35,NA,NA,701,61,YEARS,M,AMERICAN INDIAN OR ALASKA NATIVE,NOT HISPANIC OR LATINO,Xan_Hi,Xanomeline High Dose,Xan_Hi,Xanomeline High Dose,USA,2014-01-25,-13,Xanomeline High Dose,Xanomeline High Dose,2014-02-07T00:00:00Z,H,2014-05-31T23:59:59Z,H,2014-02-07,2014-05-31,114,NA,2014-06-14,DISCONTINUED,NA,NA,NA,NA,NA,2014-06-14,Y,Non-white,18-64,"NA",NA,NA,NA,NA
NA,CDISCPILOT01,01-701-1275,NA,NA,NA,NA,NA,NA,NA,NA,NA,NA,NA,2014-02-07,BOR,Best Overall Response by Investigator (confirmation not required),Tumor Response,Investigator,RECIST 1.1,NA,NA,NA,MISSING,7,Y,NA,2,1275,2014-02-07,2014-06-14,2014-02-07,2014-05-31,NA,2014-06-14T12:35,NA,NA,701,61,YEARS,M,AMERICAN INDIAN OR ALASKA NATIVE,NOT HISPANIC OR LATINO,Xan_Hi,Xanomeline High Dose,Xan_Hi,Xanomeline High Dose,USA,2014-01-25,-13,Xanomeline High Dose,Xanomeline High Dose,2014-02-07T00:00:00Z,H,2014-05-31T23:59:59Z,H,2014-02-07,2014-05-31,114,NA,2014-06-14,DISCONTINUED,NA,NA,NA,NA,NA,2014-06-14,Y,Non-white,18-64,"NA",NA,NA,NA,NA
NA,CDISCPILOT01,01-701-1275,NA,NA,NA,NA,NA,NA,NA,NA,NA,NA,NA,2014-02-07,CB,Clinical Benefit by Investigator (confirmation for response not required),Tumor Response,Investigator,RECIST 1.1,NA,NA,NA,N,0,Y,NA,3,1275,2014-02-07,2014-06-14,2014-02-07,2014-05-31,NA,2014-06-14T12:35,NA,NA,701,61,YEARS,M,AMERICAN INDIAN OR ALASKA NATIVE,NOT HISPANIC OR LATINO,Xan_Hi,Xanomeline High Dose,Xan_Hi,Xanomeline High Dose,USA,2014-01-25,-13,Xanomeline High Dose,Xanomeline High Dose,2014-02-07T00:00:00Z,H,2014-05-31T23:59:59Z,H,2014-02-07,2014-05-31,114,NA,2014-06-14,DISCONTINUED,NA,NA,NA,NA,NA,2014-06-14,Y,Non-white,18-64,"NA",NA,NA,NA,NA
NA,CDISCPILOT01,01-701-1275,NA,NA,NA,NA,NA,NA,NA,NA,NA,NA,NA,2014-02-07,CBCP,Best Confirmed Overall Response of CR/PR by Investigator,Tumor Response,Investigator,RECIST 1.1,NA,NA,NA,N,0,Y,NA,4,1275,2014-02-07,2014-06-14,2014-02-07,2014-05-31,NA,2014-06-14T12:35,NA,NA,701,61,YEARS,M,AMERICAN INDIAN OR ALASKA NATIVE,NOT HISPANIC OR LATINO,Xan_Hi,Xanomeline High Dose,Xan_Hi,Xanomeline High Dose,USA,2014-01-25,-13,Xanomeline High Dose,Xanomeline High Dose,2014-02-07T00:00:00Z,H,2014-05-31T23:59:59Z,H,2014-02-07,2014-05-31,114,NA,2014-06-14,DISCONTINUED,NA,NA,NA,NA,NA,2014-06-14,Y,Non-white,18-64,"NA",NA,NA,NA,NA
NA,CDISCPILOT01,01-701-1275,NA,NA,NA,NA,NA,NA,NA,NA,NA,NA,NA,2014-02-07,CBOR,Best Confirmed Overall Response by Investigator,Tumor Response,Investigator,RECIST 1.1,NA,NA,NA,MISSING,7,Y,NA,5,1275,2014-02-07,2014-06-14,2014-02-07,2014-05-31,NA,2014-06-14T12:35,NA,NA,701,61,YEARS,M,AMERICAN INDIAN OR ALASKA NATIVE,NOT HISPANIC OR LATINO,Xan_Hi,Xanomeline High Dose,Xan_Hi,Xanomeline High Dose,USA,2014-01-25,-13,Xanomeline High Dose,Xanomeline High Dose,2014-02-07T00:00:00Z,H,2014-05-31T23:59:59Z,H,2014-02-07,2014-05-31,114,NA,2014-06-14,DISCONTINUED,NA,NA,NA,NA,NA,2014-06-14,Y,Non-white,18-64,"NA",NA,NA,NA,NA
NA,CDISCPILOT01,01-701-1275,NA,NA,NA,NA,NA,NA,NA,NA,NA,NA,NA,2014-02-07,CCB,Confirmed Clinical Benefit by Investigator,Tumor Response,Investigator,RECIST 1.1,NA,NA,NA,N,0,Y,NA,6,1275,2014-02-07,2014-06-14,2014-02-07,2014-05-31,NA,2014-06-14T12:35,NA,NA,701,61,YEARS,M,AMERICAN INDIAN OR ALASKA NATIVE,NOT HISPANIC OR LATINO,Xan_Hi,Xanomeline High Dose,Xan_Hi,Xanomeline High Dose,USA,2014-01-25,-13,Xanomeline High Dose,Xanomeline High Dose,2014-02-07T00:00:00Z,H,2014-05-31T23:59:59Z,H,2014-02-07,2014-05-31,114,NA,2014-06-14,DISCONTINUED,NA,NA,NA,NA,NA,2014-06-14,Y,Non-white,18-64,"NA",NA,NA,NA,NA
NA,CDISCPILOT01,01-701-1275,NA,NA,NA,NA,NA,NA,NA,NA,NA,NA,NA,2014-02-07,CRSP,Confirmed Response by Investigator,Tumor Response,Investigator,RECIST 1.1,NA,NA,NA,N,0,Y,NA,7,1275,2014-02-07,2014-06-14,2014-02-07,2014-05-31,NA,2014-06-14T12:35,NA,NA,701,61,YEARS,M,AMERICAN INDIAN OR ALASKA NATIVE,NOT HISPANIC OR LATINO,Xan_Hi,Xanomeline High Dose,Xan_Hi,Xanomeline High Dose,USA,2014-01-25,-13,Xanomeline High Dose,Xanomeline High Dose,2014-02-07T00:00:00Z,H,2014-05-31T23:59:59Z,H,2014-02-07,2014-05-31,114,NA,2014-06-14,DISCONTINUED,NA,NA,NA,NA,NA,2014-06-14,Y,Non-white,18-64,"NA",NA,NA,NA,NA
NA,CDISCPILOT01,01-701-1275,NA,NA,NA,NA,NA,NA,NA,NA,NA,NA,NA,2014-02-07,DEATH,Death,Reference Event,NA,NA,NA,NA,NA,N,0,Y,NA,8,1275,2014-02-07,2014-06-14,2014-02-07,2014-05-31,NA,2014-06-14T12:35,NA,NA,701,61,YEARS,M,AMERICAN INDIAN OR ALASKA NATIVE,NOT HISPANIC OR LATINO,Xan_Hi,Xanomeline High Dose,Xan_Hi,Xanomeline High Dose,USA,2014-01-25,-13,Xanomeline High Dose,Xanomeline High Dose,2014-02-07T00:00:00Z,H,2014-05-31T23:59:59Z,H,2014-02-07,2014-05-31,114,NA,2014-06-14,DISCONTINUED,NA,NA,NA,NA,NA,2014-06-14,Y,Non-white,18-64,"NA",NA,NA,NA,NA
