STUDYID,USUBJID,EVNTDESC,SRCDOM,SRCVAR,SRCSEQ,CNSR,ADT,CNSDTDSC,STARTDT,PARAMCD,PARAM,AVAL,ASEQ,ARMCD,ARM,ACTARMCD,ACTARM,AGE,SEX
CDISCPILOT01,01-701-1015,Alive,ADSL,LSTALVDT,NA,1,2014-07-02,Alive During Study,2014-01-02,OS,Overall Survival,182,1,Pbo,Placebo,Pbo,Placebo,63,F
CDISCPILOT01,01-701-1015,Last Tumor Assessment,ADRS,ADT,9,1,2014-03-06,Last Tumor Assessment,2014-01-02,PFS,Progression Free Survival,64,2,Pbo,Placebo,Pbo,Placebo,63,F
CDISCPILOT01,01-701-1015,Last Tumor Assessment,ADRS,ADT,9,1,2014-03-06,Last Tumor Assessment,2014-03-06,RSD,Duration of Response,1,3,Pbo,Placebo,Pbo,Placebo,63,F
CDISCPILOT01,01-701-1023,Alive,ADSL,LSTALVDT,NA,1,2012-09-02,Alive During Study,2012-08-05,OS,Overall Survival,29,1,Pbo,Placebo,Pbo,Placebo,64,M
CDISCPILOT01,01-701-1023,Randomization,ADSL,RANDDT,NA,1,2012-08-05,Randomization,2012-08-05,PFS,Progression Free Survival,1,2,Pbo,Placebo,Pbo,Placebo,64,M
CDISCPILOT01,01-701-1028,Alive,ADSL,LSTALVDT,NA,1,2014-01-14,Alive During Study,2013-07-19,OS,Overall Survival,180,1,Xan_Hi,Xanomeline High Dose,Xan_Hi,Xanomeline High Dose,71,M
CDISCPILOT01,01-701-1028,Disease Progression,ADRS,ADT,14,0,2013-08-30,NA,2013-07-19,PFS,Progression Free Survival,43,2,Xan_Hi,Xanomeline High Dose,Xan_Hi,Xanomeline High Dose,71,M
CDISCPILOT01,01-701-1033,Alive,ADSL,LSTALVDT,NA,1,2014-04-14,Alive During Study,2014-03-18,OS,Overall Survival,28,1,Xan_Lo,Xanomeline Low Dose,Xan_Lo,Xanomeline Low Dose,74,M
CDISCPILOT01,01-701-1033,Randomization,ADSL,RANDDT,NA,1,2014-03-18,Randomization,2014-03-18,PFS,Progression Free Survival,1,2,Xan_Lo,Xanomeline Low Dose,Xan_Lo,Xanomeline Low Dose,74,M
CDISCPILOT01,01-701-1034,Alive,ADSL,LSTALVDT,NA,1,2014-12-30,Alive During Study,2014-07-01,OS,Overall Survival,183,1,Xan_Hi,Xanomeline High Dose,Xan_Hi,Xanomeline High Dose,77,F
CDISCPILOT01,01-701-1034,Last Tumor Assessment,ADRS,ADT,9,1,2014-08-12,Last Tumor Assessment,2014-07-01,PFS,Progression Free Survival,43,2,Xan_Hi,Xanomeline High Dose,Xan_Hi,Xanomeline High Dose,77,F
CDISCPILOT01,01-701-1047,Alive,ADSL,LSTALVDT,NA,1,2013-04-07,Alive During Study,2013-02-12,OS,Overall Survival,55,1,Pbo,Placebo,Pbo,Placebo,85,F
CDISCPILOT01,01-701-1047,Randomization,ADSL,RANDDT,NA,1,2013-02-12,Randomization,2013-02-12,PFS,Progression Free Survival,1,2,Pbo,Placebo,Pbo,Placebo,85,F
CDISCPILOT01,01-701-1097,Alive,ADSL,LSTALVDT,NA,1,2014-07-09,Alive During Study,2014-01-01,OS,Overall Survival,190,1,Xan_Lo,Xanomeline Low Dose,Xan_Lo,Xanomeline Low Dose,68,M
CDISCPILOT01,01-701-1097,Last Tumor Assessment,ADRS,ADT,9,1,2014-01-22,Last Tumor Assessment,2014-01-01,PFS,Progression Free Survival,22,2,Xan_Lo,Xanomeline Low Dose,Xan_Lo,Xanomeline Low Dose,68,M
CDISCPILOT01,01-701-1111,Alive,ADSL,LSTALVDT,NA,1,2012-09-17,Alive During Study,2012-09-07,OS,Overall Survival,11,1,Xan_Lo,Xanomeline Low Dose,Xan_Lo,Xanomeline Low Dose,81,F
CDISCPILOT01,01-701-1111,Randomization,ADSL,RANDDT,NA,1,2012-09-07,Randomization,2012-09-07,PFS,Progression Free Survival,1,2,Xan_Lo,Xanomeline Low Dose,Xan_Lo,Xanomeline Low Dose,81,F
CDISCPILOT01,01-701-1115,Alive,ADSL,LSTALVDT,NA,1,2013-01-23,Alive During Study,2012-11-30,OS,Overall Survival,55,1,Xan_Lo,Xanomeline Low Dose,Xan_Lo,Xanomeline Low Dose,84,M
CDISCPILOT01,01-701-1115,Last Tumor Assessment,ADRS,ADT,9,1,2013-02-01,Last Tumor Assessment,2012-11-30,PFS,Progression Free Survival,64,2,Xan_Lo,Xanomeline Low Dose,Xan_Lo,Xanomeline Low Dose,84,M
CDISCPILOT01,01-701-1115,Last Tumor Assessment,ADRS,ADT,9,1,2013-02-01,Last Tumor Assessment,2013-01-11,RSD,Duration of Response,22,3,Xan_Lo,Xanomeline Low Dose,Xan_Lo,Xanomeline Low Dose,84,M
CDISCPILOT01,01-701-1118,Alive,ADSL,LSTALVDT,NA,1,2014-09-09,Alive During Study,2014-03-12,OS,Overall Survival,182,1,Pbo,Placebo,Pbo,Placebo,52,M
CDISCPILOT01,01-701-1118,Last Tumor Assessment,ADRS,ADT,9,1,2014-06-04,Last Tumor Assessment,2014-03-12,PFS,Progression Free Survival,85,2,Pbo,Placebo,Pbo,Placebo,52,M
CDISCPILOT01,01-701-1118,Last Tumor Assessment,ADRS,ADT,9,1,2014-06-04,Last Tumor Assessment,2014-04-23,RSD,Duration of Response,43,3,Pbo,Placebo,Pbo,Placebo,52,M
CDISCPILOT01,01-701-1130,Alive,ADSL,LSTALVDT,NA,1,2014-08-16,Alive During Study,2014-02-15,OS,Overall Survival,183,1,Pbo,Placebo,Pbo,Placebo,84,M
CDISCPILOT01,01-701-1130,Disease Progression,ADRS,ADT,14,0,2014-04-19,NA,2014-02-15,PFS,Progression Free Survival,64,2,Pbo,Placebo,Pbo,Placebo,84,M
CDISCPILOT01,01-701-1133,Alive,ADSL,LSTALVDT,NA,1,2013-04-29,Alive During Study,2012-10-28,OS,Overall Survival,184,1,Xan_Hi,Xanomeline High Dose,Xan_Hi,Xanomeline High Dose,81,F
CDISCPILOT01,01-701-1133,Disease Progression,ADRS,ADT,14,0,2012-12-30,NA,2012-10-28,PFS,Progression Free Survival,64,2,Xan_Hi,Xanomeline High Dose,Xan_Hi,Xanomeline High Dose,81,F
CDISCPILOT01,01-701-1133,Disease Progression,ADRS,ADT,14,0,2012-12-30,NA,2012-11-18,RSD,Duration of Response,43,3,Xan_Hi,Xanomeline High Dose,Xan_Hi,Xanomeline High Dose,81,F
CDISCPILOT01,01-701-1146,Alive,ADSL,LSTALVDT,NA,1,2013-06-30,Alive During Study,2013-05-20,OS,Overall Survival,42,1,Xan_Hi,Xanomeline High Dose,Xan_Hi,Xanomeline High Dose,75,F
CDISCPILOT01,01-701-1146,Randomization,ADSL,RANDDT,NA,1,2013-05-20,Randomization,2013-05-20,PFS,Progression Free Survival,1,2,Xan_Hi,Xanomeline High Dose,Xan_Hi,Xanomeline High Dose,75,F
CDISCPILOT01,01-701-1148,Alive,ADSL,LSTALVDT,NA,1,2014-02-20,Alive During Study,2013-08-23,OS,Overall Survival,182,1,Xan_Hi,Xanomeline High Dose,Xan_Hi,Xanomeline High Dose,57,M
CDISCPILOT01,01-701-1148,Randomization,ADSL,RANDDT,NA,1,2013-08-23,Randomization,2013-08-23,PFS,Progression Free Survival,1,2,Xan_Hi,Xanomeline High Dose,Xan_Hi,Xanomeline High Dose,57,M
CDISCPILOT01,01-701-1153,Alive,ADSL,LSTALVDT,NA,1,2014-04-01,Alive During Study,2013-09-23,OS,Overall Survival,191,1,Pbo,Placebo,Pbo,Placebo,79,F
CDISCPILOT01,01-701-1153,Randomization,ADSL,RANDDT,NA,1,2013-09-23,Randomization,2013-09-23,PFS,Progression Free Survival,1,2,Pbo,Placebo,Pbo,Placebo,79,F
CDISCPILOT01,01-701-1180,Alive,ADSL,LSTALVDT,NA,1,2013-03-23,Alive During Study,2013-02-12,OS,Overall Survival,40,1,Xan_Hi,Xanomeline High Dose,Xan_Hi,Xanomeline High Dose,56,M
CDISCPILOT01,01-701-1180,Randomization,ADSL,RANDDT,NA,1,2013-02-12,Randomization,2013-02-12,PFS,Progression Free Survival,1,2,Xan_Hi,Xanomeline High Dose,Xan_Hi,Xanomeline High Dose,56,M
CDISCPILOT01,01-701-1181,Alive,ADSL,LSTALVDT,NA,1,2013-12-12,Alive During Study,2013-12-05,OS,Overall Survival,8,1,Xan_Hi,Xanomeline High Dose,Xan_Lo,Xanomeline Low Dose,79,F
CDISCPILOT01,01-701-1181,Randomization,ADSL,RANDDT,NA,1,2013-12-05,Randomization,2013-12-05,PFS,Progression Free Survival,1,2,Xan_Hi,Xanomeline High Dose,Xan_Lo,Xanomeline Low Dose,79,F
CDISCPILOT01,01-701-1188,Alive,ADSL,LSTALVDT,NA,1,2013-03-25,Alive During Study,2013-02-15,OS,Overall Survival,39,1,Xan_Lo,Xanomeline Low Dose,Xan_Lo,Xanomeline Low Dose,71,M
CDISCPILOT01,01-701-1188,Randomization,ADSL,RANDDT,NA,1,2013-02-15,Randomization,2013-02-15,PFS,Progression Free Survival,1,2,Xan_Lo,Xanomeline Low Dose,Xan_Lo,Xanomeline Low Dose,71,M
CDISCPILOT01,01-701-1192,Alive,ADSL,LSTALVDT,NA,1,2013-01-20,Alive During Study,2012-07-22,OS,Overall Survival,183,1,Xan_Lo,Xanomeline Low Dose,Xan_Lo,Xanomeline Low Dose,80,F
CDISCPILOT01,01-701-1192,Randomization,ADSL,RANDDT,NA,1,2012-07-22,Randomization,2012-07-22,PFS,Progression Free Survival,1,2,Xan_Lo,Xanomeline Low Dose,Xan_Lo,Xanomeline Low Dose,80,F
CDISCPILOT01,01-701-1203,Alive,ADSL,LSTALVDT,NA,1,2013-08-03,Alive During Study,2013-02-02,OS,Overall Survival,183,1,Pbo,Placebo,Pbo,Placebo,81,F
CDISCPILOT01,01-701-1203,Randomization,ADSL,RANDDT,NA,1,2013-02-02,Randomization,2013-02-02,PFS,Progression Free Survival,1,2,Pbo,Placebo,Pbo,Placebo,81,F
CDISCPILOT01,01-701-1211,Death,ADRS,ADT,8,0,2013-01-14,NA,2012-11-15,OS,Overall Survival,61,1,Xan_Lo,Xanomeline Low Dose,Xan_Lo,Xanomeline Low Dose,76,F
CDISCPILOT01,01-701-1211,Death,ADRS,ADT,8,0,2013-01-14,NA,2012-11-15,PFS,Progression Free Survival,61,2,Xan_Lo,Xanomeline Low Dose,Xan_Lo,Xanomeline Low Dose,76,F
CDISCPILOT01,01-701-1234,Alive,ADSL,LSTALVDT,NA,1,2013-09-22,Alive During Study,2013-03-30,OS,Overall Survival,177,1,Pbo,Placebo,Pbo,Placebo,69,M
CDISCPILOT01,01-701-1234,Randomization,ADSL,RANDDT,NA,1,2013-03-30,Randomization,2013-03-30,PFS,Progression Free Survival,1,2,Pbo,Placebo,Pbo,Placebo,69,M
CDISCPILOT01,01-701-1239,Alive,ADSL,LSTALVDT,NA,1,2014-07-11,Alive During Study,2014-01-11,OS,Overall Survival,182,1,Xan_Hi,Xanomeline High Dose,Xan_Hi,Xanomeline High Dose,56,M
CDISCPILOT01,01-701-1239,Randomization,ADSL,RANDDT,NA,1,2014-01-11,Randomization,2014-01-11,PFS,Progression Free Survival,1,2,Xan_Hi,Xanomeline High Dose,Xan_Hi,Xanomeline High Dose,56,M
CDISCPILOT01,01-701-1275,Alive,ADSL,LSTALVDT,NA,1,2014-06-14,Alive During Study,2014-02-07,OS,Overall Survival,128,1,Xan_Hi,Xanomeline High Dose,Xan_Hi,Xanomeline High Dose,61,M
CDISCPILOT01,01-701-1275,Randomization,ADSL,RANDDT,NA,1,2014-02-07,Randomization,2014-02-07,PFS,Progression Free Survival,1,2,Xan_Hi,Xanomeline High Dose,Xan_Hi,Xanomeline High Dose,61,M
CDISCPILOT01,01-701-1287,Alive,ADSL,LSTALVDT,NA,1,2014-07-26,Alive During Study,2014-01-25,OS,Overall Survival,183,1,Xan_Hi,Xanomeline High Dose,Xan_Hi,Xanomeline High Dose,56,F
CDISCPILOT01,01-701-1287,Randomization,ADSL,RANDDT,NA,1,2014-01-25,Randomization,2014-01-25,PFS,Progression Free Survival,1,2,Xan_Hi,Xanomeline High Dose,Xan_Hi,Xanomeline High Dose,56,F
CDISCPILOT01,01-701-1294,Alive,ADSL,LSTALVDT,NA,1,2013-06-14,Alive During Study,2013-03-24,OS,Overall Survival,83,1,Xan_Lo,Xanomeline Low Dose,Xan_Lo,Xanomeline Low Dose,67,M
CDISCPILOT01,01-701-1294,Randomization,ADSL,RANDDT,NA,1,2013-03-24,Randomization,2013-03-24,PFS,Progression Free Survival,1,2,Xan_Lo,Xanomeline Low Dose,Xan_Lo,Xanomeline Low Dose,67,M
CDISCPILOT01,01-701-1302,Alive,ADSL,LSTALVDT,NA,1,2013-11-05,Alive During Study,2013-08-29,OS,Overall Survival,69,1,Xan_Hi,Xanomeline High Dose,Xan_Hi,Xanomeline High Dose,61,M
CDISCPILOT01,01-701-1302,Randomization,ADSL,RANDDT,NA,1,2013-08-29,Randomization,2013-08-29,PFS,Progression Free Survival,1,2,Xan_Hi,Xanomeline High Dose,Xan_Hi,Xanomeline High Dose,61,M
CDISCPILOT01,01-701-1317,Alive,ADSL,LSTALVDT,NA,1,2014-11-20,Alive During Study,2014-05-22,OS,Overall Survival,183,1,Xan_Lo,Xanomeline Low Dose,Xan_Lo,Xanomeline Low Dose,68,M
CDISCPILOT01,01-701-1317,Randomization,ADSL,RANDDT,NA,1,2014-05-22,Randomization,2014-05-22,PFS,Progression Free Survival,1,2,Xan_Lo,Xanomeline Low Dose,Xan_Lo,Xanomeline Low Dose,68,M
CDISCPILOT01,01-701-1324,Alive,ADSL,LSTALVDT,NA,1,2013-04-02,Alive During Study,2012-10-02,OS,Overall Survival,183,1,Xan_Lo,Xanomeline Low Dose,Xan_Lo,Xanomeline Low Dose,79,M
CDISCPILOT01,01-701-1324,Randomization,ADSL,RANDDT,NA,1,2012-10-02,Randomization,2012-10-02,PFS,Progression Free Survival,1,2,Xan_Lo,Xanomeline Low Dose,Xan_Lo,Xanomeline Low Dose,79,M
CDISCPILOT01,01-701-1341,Alive,ADSL,LSTALVDT,NA,1,2013-02-07,Alive During Study,2013-01-05,OS,Overall Survival,34,1,Xan_Lo,Xanomeline Low Dose,Xan_Lo,Xanomeline Low Dose,51,M
CDISCPILOT01,01-701-1341,Randomization,ADSL,RANDDT,NA,1,2013-01-05,Randomization,2013-01-05,PFS,Progression Free Survival,1,2,Xan_Lo,Xanomeline Low Dose,Xan_Lo,Xanomeline Low Dose,51,M
CDISCPILOT01,01-701-1345,Alive,ADSL,LSTALVDT,NA,1,2014-03-18,Alive During Study,2013-10-08,OS,Overall Survival,162,1,Pbo,Placebo,Pbo,Placebo,63,F
CDISCPILOT01,01-701-1345,Randomization,ADSL,RANDDT,NA,1,2013-10-08,Randomization,2013-10-08,PFS,Progression Free Survival,1,2,Pbo,Placebo,Pbo,Placebo,63,F
CDISCPILOT01,01-701-1360,Alive,ADSL,LSTALVDT,NA,1,2013-08-14,Alive During Study,2013-07-31,OS,Overall Survival,15,1,Xan_Hi,Xanomeline High Dose,Xan_Lo,Xanomeline Low Dose,67,M
CDISCPILOT01,01-701-1360,Randomization,ADSL,RANDDT,NA,1,2013-07-31,Randomization,2013-07-31,PFS,Progression Free Survival,1,2,Xan_Hi,Xanomeline High Dose,Xan_Lo,Xanomeline Low Dose,67,M
CDISCPILOT01,01-701-1363,Alive,ADSL,LSTALVDT,NA,1,2013-11-27,Alive During Study,2013-05-30,OS,Overall Survival,182,1,Pbo,Placebo,Pbo,Placebo,81,F
CDISCPILOT01,01-701-1363,Randomization,ADSL,RANDDT,NA,1,2013-05-30,Randomization,2013-05-30,PFS,Progression Free Survival,1,2,Pbo,Placebo,Pbo,Placebo,81,F
CDISCPILOT01,01-701-1383,Alive,ADSL,LSTALVDT,NA,1,2013-08-06,Alive During Study,2013-02-04,OS,Overall Survival,184,1,Xan_Hi,Xanomeline High Dose,Xan_Hi,Xanomeline High Dose,72,F
CDISCPILOT01,01-701-1383,Randomization,ADSL,RANDDT,NA,1,2013-02-04,Randomization,2013-02-04,PFS,Progression Free Survival,1,2,Xan_Hi,Xanomeline High Dose,Xan_Hi,Xanomeline High Dose,72,F
CDISCPILOT01,01-701-1387,Alive,ADSL,LSTALVDT,NA,1,2014-03-25,Alive During Study,2014-03-12,OS,Overall Survival,14,1,Pbo,Placebo,Pbo,Placebo,87,F
CDISCPILOT01,01-701-1387,Randomization,ADSL,RANDDT,NA,1,2014-03-12,Randomization,2014-03-12,PFS,Progression Free Survival,1,2,Pbo,Placebo,Pbo,Placebo,87,F
CDISCPILOT01,01-701-1392,Alive,ADSL,LSTALVDT,NA,1,2013-04-28,Alive During Study,2012-10-28,OS,Overall Survival,183,1,Pbo,Placebo,Pbo,Placebo,78,M
CDISCPILOT01,01-701-1392,Randomization,ADSL,RANDDT,NA,1,2012-10-28,Randomization,2012-10-28,PFS,Progression Free Survival,1,2,Pbo,Placebo,Pbo,Placebo,78,M
CDISCPILOT01,01-701-1415,Alive,ADSL,LSTALVDT,NA,1,2014-03-24,Alive During Study,2013-09-23,OS,Overall Survival,183,1,Pbo,Placebo,Pbo,Placebo,85,M
CDISCPILOT01,01-701-1415,Randomization,ADSL,RANDDT,NA,1,2013-09-23,Randomization,2013-09-23,PFS,Progression Free Survival,1,2,Pbo,Placebo,Pbo,Placebo,85,M
CDISCPILOT01,01-701-1429,Alive,ADSL,LSTALVDT,NA,1,2013-04-30,Alive During Study,2013-03-19,OS,Overall Survival,43,1,Xan_Lo,Xanomeline Low Dose,Xan_Lo,Xanomeline Low Dose,84,F
CDISCPILOT01,01-701-1429,Randomization,ADSL,RANDDT,NA,1,2013-03-19,Randomization,2013-03-19,PFS,Progression Free Survival,1,2,Xan_Lo,Xanomeline Low Dose,Xan_Lo,Xanomeline Low Dose,84,F
CDISCPILOT01,01-701-1440,Alive,ADSL,LSTALVDT,NA,1,2014-02-05,Alive During Study,2013-08-08,OS,Overall Survival,182,1,Pbo,Placebo,Pbo,Placebo,70,M
CDISCPILOT01,01-701-1440,Randomization,ADSL,RANDDT,NA,1,2013-08-08,Randomization,2013-08-08,PFS,Progression Free Survival,1,2,Pbo,Placebo,Pbo,Placebo,70,M
CDISCPILOT01,01-701-1442,Alive,ADSL,LSTALVDT,NA,1,2014-04-26,Alive During Study,2013-10-26,OS,Overall Survival,183,1,Xan_Lo,Xanomeline Low Dose,Xan_Lo,Xanomeline Low Dose,57,F
CDISCPILOT01,01-701-1442,Randomization,ADSL,RANDDT,NA,1,2013-10-26,Randomization,2013-10-26,PFS,Progression Free Survival,1,2,Xan_Lo,Xanomeline Low Dose,Xan_Lo,Xanomeline Low Dose,57,F
CDISCPILOT01,01-701-1444,Alive,ADSL,LSTALVDT,NA,1,2013-02-13,Alive During Study,2013-01-05,OS,Overall Survival,40,1,Xan_Hi,Xanomeline High Dose,Xan_Hi,Xanomeline High Dose,63,M
CDISCPILOT01,01-701-1444,Randomization,ADSL,RANDDT,NA,1,2013-01-05,Randomization,2013-01-05,PFS,Progression Free Survival,1,2,Xan_Hi,Xanomeline High Dose,Xan_Hi,Xanomeline High Dose,63,M
CDISCPILOT01,01-702-1082,Alive,ADSL,LSTALVDT,NA,1,2013-11-17,Alive During Study,2013-07-26,OS,Overall Survival,115,1,Xan_Lo,Xanomeline Low Dose,Xan_Lo,Xanomeline Low Dose,84,F
CDISCPILOT01,01-702-1082,Randomization,ADSL,RANDDT,NA,1,2013-07-26,Randomization,2013-07-26,PFS,Progression Free Survival,1,2,Xan_Lo,Xanomeline Low Dose,Xan_Lo,Xanomeline Low Dose,84,F
CDISCPILOT01,01-703-1042,Alive,ADSL,LSTALVDT,NA,1,2013-08-31,Alive During Study,2013-03-02,OS,Overall Survival,183,1,Pbo,Placebo,Pbo,Placebo,64,M
CDISCPILOT01,01-703-1042,Randomization,ADSL,RANDDT,NA,1,2013-03-02,Randomization,2013-03-02,PFS,Progression Free Survival,1,2,Pbo,Placebo,Pbo,Placebo,64,M
CDISCPILOT01,01-703-1076,Alive,ADSL,LSTALVDT,NA,1,2013-12-24,Alive During Study,2013-10-25,OS,Overall Survival,61,1,Xan_Hi,Xanomeline High Dose,Xan_Hi,Xanomeline High Dose,69,M
CDISCPILOT01,01-703-1076,Randomization,ADSL,RANDDT,NA,1,2013-10-25,Randomization,2013-10-25,PFS,Progression Free Survival,1,2,Xan_Hi,Xanomeline High Dose,Xan_Hi,Xanomeline High Dose,69,M
CDISCPILOT01,01-703-1086,Alive,ADSL,LSTALVDT,NA,1,2013-01-02,Alive During Study,2012-09-02,OS,Overall Survival,123,1,Xan_Lo,Xanomeline Low Dose,Xan_Lo,Xanomeline Low Dose,71,M
CDISCPILOT01,01-703-1086,Randomization,ADSL,RANDDT,NA,1,2012-09-02,Randomization,2012-09-02,PFS,Progression Free Survival,1,2,Xan_Lo,Xanomeline Low Dose,Xan_Lo,Xanomeline Low Dose,71,M
CDISCPILOT01,01-703-1096,Alive,ADSL,LSTALVDT,NA,1,2013-03-16,Alive During Study,2013-01-25,OS,Overall Survival,51,1,Pbo,Placebo,Pbo,Placebo,81,F
CDISCPILOT01,01-703-1096,Randomization,ADSL,RANDDT,NA,1,2013-01-25,Randomization,2013-01-25,PFS,Progression Free Survival,1,2,Pbo,Placebo,Pbo,Placebo,81,F
CDISCPILOT01,01-703-1100,Alive,ADSL,LSTALVDT,NA,1,2013-09-14,Alive During Study,2013-03-13,OS,Overall Survival,186,1,Pbo,Placebo,Pbo,Placebo,84,F
CDISCPILOT01,01-703-1100,Randomization,ADSL,RANDDT,NA,1,2013-03-13,Randomization,2013-03-13,PFS,Progression Free Survival,1,2,Pbo,Placebo,Pbo,Placebo,84,F
CDISCPILOT01,01-703-1119,Alive,ADSL,LSTALVDT,NA,1,2013-06-13,Alive During Study,2013-02-20,OS,Overall Survival,114,1,Xan_Lo,Xanomeline Low Dose,Xan_Lo,Xanomeline Low Dose,81,F
CDISCPILOT01,01-703-1119,Randomization,ADSL,RANDDT,NA,1,2013-02-20,Randomization,2013-02-20,PFS,Progression Free Survival,1,2,Xan_Lo,Xanomeline Low Dose,Xan_Lo,Xanomeline Low Dose,81,F
CDISCPILOT01,01-703-1175,Alive,ADSL,LSTALVDT,NA,1,2013-12-31,Alive During Study,2013-12-20,OS,Overall Survival,12,1,Pbo,Placebo,Pbo,Placebo,75,M
CDISCPILOT01,01-703-1175,Randomization,ADSL,RANDDT,NA,1,2013-12-20,Randomization,2013-12-20,PFS,Progression Free Survival,1,2,Pbo,Placebo,Pbo,Placebo,75,M
CDISCPILOT01,01-703-1182,Alive,ADSL,LSTALVDT,NA,1,2013-12-12,Alive During Study,2013-10-17,OS,Overall Survival,57,1,Xan_Lo,Xanomeline Low Dose,Xan_Lo,Xanomeline Low Dose,84,M
CDISCPILOT01,01-703-1182,Randomization,ADSL,RANDDT,NA,1,2013-10-17,Randomization,2013-10-17,PFS,Progression Free Survival,1,2,Xan_Lo,Xanomeline Low Dose,Xan_Lo,Xanomeline Low Dose,84,M
CDISCPILOT01,01-703-1197,Alive,ADSL,LSTALVDT,NA,1,2013-06-29,Alive During Study,2013-06-16,OS,Overall Survival,14,1,Xan_Lo,Xanomeline Low Dose,Xan_Lo,Xanomeline Low Dose,76,F
CDISCPILOT01,01-703-1197,Randomization,ADSL,RANDDT,NA,1,2013-06-16,Randomization,2013-06-16,PFS,Progression Free Survival,1,2,Xan_Lo,Xanomeline Low Dose,Xan_Lo,Xanomeline Low Dose,76,F
CDISCPILOT01,01-703-1210,Alive,ADSL,LSTALVDT,NA,1,2013-09-06,Alive During Study,2013-03-16,OS,Overall Survival,175,1,Pbo,Placebo,Pbo,Placebo,72,F
CDISCPILOT01,01-703-1210,Randomization,ADSL,RANDDT,NA,1,2013-03-16,Randomization,2013-03-16,PFS,Progression Free Survival,1,2,Pbo,Placebo,Pbo,Placebo,72,F
CDISCPILOT01,01-703-1258,Alive,ADSL,LSTALVDT,NA,1,2013-01-25,Alive During Study,2012-07-20,OS,Overall Survival,190,1,Xan_Hi,Xanomeline High Dose,Xan_Hi,Xanomeline High Dose,78,F
CDISCPILOT01,01-703-1258,Randomization,ADSL,RANDDT,NA,1,2012-07-20,Randomization,2012-07-20,PFS,Progression Free Survival,1,2,Xan_Hi,Xanomeline High Dose,Xan_Hi,Xanomeline High Dose,78,F
CDISCPILOT01,01-703-1279,Alive,ADSL,LSTALVDT,NA,1,2013-06-03,Alive During Study,2013-05-13,OS,Overall Survival,22,1,Xan_Lo,Xanomeline Low Dose,Xan_Lo,Xanomeline Low Dose,72,F
CDISCPILOT01,01-703-1279,Randomization,ADSL,RANDDT,NA,1,2013-05-13,Randomization,2013-05-13,PFS,Progression Free Survival,1,2,Xan_Lo,Xanomeline Low Dose,Xan_Lo,Xanomeline Low Dose,72,F
CDISCPILOT01,01-703-1295,Alive,ADSL,LSTALVDT,NA,1,2014-05-19,Alive During Study,2013-11-21,OS,Overall Survival,180,1,Xan_Hi,Xanomeline High Dose,Xan_Hi,Xanomeline High Dose,88,F
CDISCPILOT01,01-703-1295,Randomization,ADSL,RANDDT,NA,1,2013-11-21,Randomization,2013-11-21,PFS,Progression Free Survival,1,2,Xan_Hi,Xanomeline High Dose,Xan_Hi,Xanomeline High Dose,88,F
CDISCPILOT01,01-703-1299,Alive,ADSL,LSTALVDT,NA,1,2013-03-13,Alive During Study,2012-09-12,OS,Overall Survival,183,1,Pbo,Placebo,Pbo,Placebo,81,F
CDISCPILOT01,01-703-1299,Randomization,ADSL,RANDDT,NA,1,2012-09-12,Randomization,2012-09-12,PFS,Progression Free Survival,1,2,Pbo,Placebo,Pbo,Placebo,81,F
CDISCPILOT01,01-703-1335,Alive,ADSL,LSTALVDT,NA,1,2014-05-24,Alive During Study,2014-03-17,OS,Overall Survival,69,1,Xan_Hi,Xanomeline High Dose,Xan_Hi,Xanomeline High Dose,67,F
CDISCPILOT01,01-703-1335,Randomization,ADSL,RANDDT,NA,1,2014-03-17,Randomization,2014-03-17,PFS,Progression Free Survival,1,2,Xan_Hi,Xanomeline High Dose,Xan_Hi,Xanomeline High Dose,67,F
CDISCPILOT01,01-703-1379,Alive,ADSL,LSTALVDT,NA,1,2014-03-21,Alive During Study,2013-09-22,OS,Overall Survival,181,1,Xan_Lo,Xanomeline Low Dose,Xan_Lo,Xanomeline Low Dose,81,F
CDISCPILOT01,01-703-1379,Randomization,ADSL,RANDDT,NA,1,2013-09-22,Randomization,2013-09-22,PFS,Progression Free Survival,1,2,Xan_Lo,Xanomeline Low Dose,Xan_Lo,Xanomeline Low Dose,81,F
CDISCPILOT01,01-703-1403,Alive,ADSL,LSTALVDT,NA,1,2012-12-19,Alive During Study,2012-12-12,OS,Overall Survival,8,1,Xan_Hi,Xanomeline High Dose,Xan_Lo,Xanomeline Low Dose,67,M
CDISCPILOT01,01-703-1403,Randomization,ADSL,RANDDT,NA,1,2012-12-12,Randomization,2012-12-12,PFS,Progression Free Survival,1,2,Xan_Hi,Xanomeline High Dose,Xan_Lo,Xanomeline Low Dose,67,M
CDISCPILOT01,01-703-1439,Alive,ADSL,LSTALVDT,NA,1,2014-09-11,Alive During Study,2014-03-12,OS,Overall Survival,184,1,Xan_Hi,Xanomeline High Dose,Xan_Hi,Xanomeline High Dose,76,F
CDISCPILOT01,01-703-1439,Randomization,ADSL,RANDDT,NA,1,2014-03-12,Randomization,2014-03-12,PFS,Progression Free Survival,1,2,Xan_Hi,Xanomeline High Dose,Xan_Hi,Xanomeline High Dose,76,F
CDISCPILOT01,01-704-1008,Alive,ADSL,LSTALVDT,NA,1,2013-02-25,Alive During Study,2013-01-13,OS,Overall Survival,44,1,Xan_Hi,Xanomeline High Dose,Xan_Hi,Xanomeline High Dose,76,F
CDISCPILOT01,01-704-1008,Randomization,ADSL,RANDDT,NA,1,2013-01-13,Randomization,2013-01-13,PFS,Progression Free Survival,1,2,Xan_Hi,Xanomeline High Dose,Xan_Hi,Xanomeline High Dose,76,F
CDISCPILOT01,01-704-1009,Alive,ADSL,LSTALVDT,NA,1,2013-09-27,Alive During Study,2013-08-27,OS,Overall Survival,32,1,Xan_Lo,Xanomeline Low Dose,Xan_Lo,Xanomeline Low Dose,83,M
CDISCPILOT01,01-704-1009,Randomization,ADSL,RANDDT,NA,1,2013-08-27,Randomization,2013-08-27,PFS,Progression Free Survival,1,2,Xan_Lo,Xanomeline Low Dose,Xan_Lo,Xanomeline Low Dose,83,M
CDISCPILOT01,01-704-1010,Alive,ADSL,LSTALVDT,NA,1,2014-07-09,Alive During Study,2014-02-21,OS,Overall Survival,139,1,Pbo,Placebo,Pbo,Placebo,80,M
CDISCPILOT01,01-704-1010,Randomization,ADSL,RANDDT,NA,1,2014-02-21,Randomization,2014-02-21,PFS,Progression Free Survival,1,2,Pbo,Placebo,Pbo,Placebo,80,M
CDISCPILOT01,01-704-1017,Alive,ADSL,LSTALVDT,NA,1,2013-11-22,Alive During Study,2013-10-06,OS,Overall Survival,48,1,Xan_Hi,Xanomeline High Dose,Xan_Hi,Xanomeline High Dose,77,M
CDISCPILOT01,01-704-1017,Randomization,ADSL,RANDDT,NA,1,2013-10-06,Randomization,2013-10-06,PFS,Progression Free Survival,1,2,Xan_Hi,Xanomeline High Dose,Xan_Hi,Xanomeline High Dose,77,M
CDISCPILOT01,01-704-1025,Alive,ADSL,LSTALVDT,NA,1,2013-11-29,Alive During Study,2013-09-27,OS,Overall Survival,64,1,Xan_Lo,Xanomeline Low Dose,Xan_Lo,Xanomeline Low Dose,81,F
CDISCPILOT01,01-704-1025,Randomization,ADSL,RANDDT,NA,1,2013-09-27,Randomization,2013-09-27,PFS,Progression Free Survival,1,2,Xan_Lo,Xanomeline Low Dose,Xan_Lo,Xanomeline Low Dose,81,F
CDISCPILOT01,01-704-1065,Alive,ADSL,LSTALVDT,NA,1,2013-12-24,Alive During Study,2013-10-24,OS,Overall Survival,62,1,Xan_Hi,Xanomeline High Dose,Xan_Hi,Xanomeline High Dose,75,M
CDISCPILOT01,01-704-1065,Randomization,ADSL,RANDDT,NA,1,2013-10-24,Randomization,2013-10-24,PFS,Progression Free Survival,1,2,Xan_Hi,Xanomeline High Dose,Xan_Hi,Xanomeline High Dose,75,M
CDISCPILOT01,01-704-1074,Alive,ADSL,LSTALVDT,NA,1,2014-03-31,Alive During Study,2014-01-22,OS,Overall Survival,69,1,Xan_Hi,Xanomeline High Dose,Xan_Hi,Xanomeline High Dose,80,F
CDISCPILOT01,01-704-1074,Randomization,ADSL,RANDDT,NA,1,2014-01-22,Randomization,2014-01-22,PFS,Progression Free Survival,1,2,Xan_Hi,Xanomeline High Dose,Xan_Hi,Xanomeline High Dose,80,F
CDISCPILOT01,01-704-1093,Alive,ADSL,LSTALVDT,NA,1,2013-06-20,Alive During Study,2013-03-15,OS,Overall Survival,98,1,Xan_Hi,Xanomeline High Dose,Xan_Hi,Xanomeline High Dose,79,M
CDISCPILOT01,01-704-1093,Randomization,ADSL,RANDDT,NA,1,2013-03-15,Randomization,2013-03-15,PFS,Progression Free Survival,1,2,Xan_Hi,Xanomeline High Dose,Xan_Hi,Xanomeline High Dose,79,M
CDISCPILOT01,01-704-1114,Alive,ADSL,LSTALVDT,NA,1,2013-07-08,Alive During Study,2013-01-23,OS,Overall Survival,167,1,Xan_Lo,Xanomeline Low Dose,Xan_Lo,Xanomeline Low Dose,77,M
CDISCPILOT01,01-704-1114,Randomization,ADSL,RANDDT,NA,1,2013-01-23,Randomization,2013-01-23,PFS,Progression Free Survival,1,2,Xan_Lo,Xanomeline Low Dose,Xan_Lo,Xanomeline Low Dose,77,M
CDISCPILOT01,01-704-1120,Alive,ADSL,LSTALVDT,NA,1,2014-02-03,Alive During Study,2013-12-02,OS,Overall Survival,64,1,Xan_Lo,Xanomeline Low Dose,Xan_Lo,Xanomeline Low Dose,71,F
CDISCPILOT01,01-704-1120,Randomization,ADSL,RANDDT,NA,1,2013-12-02,Randomization,2013-12-02,PFS,Progression Free Survival,1,2,Xan_Lo,Xanomeline Low Dose,Xan_Lo,Xanomeline Low Dose,71,F
CDISCPILOT01,01-704-1127,Alive,ADSL,LSTALVDT,NA,1,2014-03-31,Alive During Study,2013-10-02,OS,Overall Survival,181,1,Pbo,Placebo,Pbo,Placebo,84,F
CDISCPILOT01,01-704-1127,Randomization,ADSL,RANDDT,NA,1,2013-10-02,Randomization,2013-10-02,PFS,Progression Free Survival,1,2,Pbo,Placebo,Pbo,Placebo,84,F
CDISCPILOT01,01-704-1135,Alive,ADSL,LSTALVDT,NA,1,2014-05-16,Alive During Study,2013-10-31,OS,Overall Survival,198,1,Xan_Lo,Xanomeline Low Dose,Xan_Lo,Xanomeline Low Dose,74,F
CDISCPILOT01,01-704-1135,Randomization,ADSL,RANDDT,NA,1,2013-10-31,Randomization,2013-10-31,PFS,Progression Free Survival,1,2,Xan_Lo,Xanomeline Low Dose,Xan_Lo,Xanomeline Low Dose,74,F
CDISCPILOT01,01-704-1164,Alive,ADSL,LSTALVDT,NA,1,2013-04-04,Alive During Study,2012-09-19,OS,Overall Survival,198,1,Pbo,Placebo,Pbo,Placebo,67,F
CDISCPILOT01,01-704-1164,Randomization,ADSL,RANDDT,NA,1,2012-09-19,Randomization,2012-09-19,PFS,Progression Free Survival,1,2,Pbo,Placebo,Pbo,Placebo,67,F
CDISCPILOT01,01-704-1218,Alive,ADSL,LSTALVDT,NA,1,2013-05-27,Alive During Study,2012-11-19,OS,Overall Survival,190,1,Xan_Lo,Xanomeline Low Dose,Xan_Lo,Xanomeline Low Dose,81,F
CDISCPILOT01,01-704-1218,Randomization,ADSL,RANDDT,NA,1,2012-11-19,Randomization,2012-11-19,PFS,Progression Free Survival,1,2,Xan_Lo,Xanomeline Low Dose,Xan_Lo,Xanomeline Low Dose,81,F
CDISCPILOT01,01-704-1233,Alive,ADSL,LSTALVDT,NA,1,2013-07-11,Alive During Study,2013-03-21,OS,Overall Survival,113,1,Pbo,Placebo,Pbo,Placebo,87,F
CDISCPILOT01,01-704-1233,Randomization,ADSL,RANDDT,NA,1,2013-03-21,Randomization,2013-03-21,PFS,Progression Free Survival,1,2,Pbo,Placebo,Pbo,Placebo,87,F
CDISCPILOT01,01-704-1241,Alive,ADSL,LSTALVDT,NA,1,2013-10-31,Alive During Study,2013-08-25,OS,Overall Survival,68,1,Xan_Hi,Xanomeline High Dose,Xan_Hi,Xanomeline High Dose,86,M
CDISCPILOT01,01-704-1241,Randomization,ADSL,RANDDT,NA,1,2013-08-25,Randomization,2013-08-25,PFS,Progression Free Survival,1,2,Xan_Hi,Xanomeline High Dose,Xan_Hi,Xanomeline High Dose,86,M
CDISCPILOT01,01-704-1260,Alive,ADSL,LSTALVDT,NA,1,2012-11-04,Alive During Study,2012-08-30,OS,Overall Survival,67,1,Pbo,Placebo,Pbo,Placebo,71,F
CDISCPILOT01,01-704-1260,Randomization,ADSL,RANDDT,NA,1,2012-08-30,Randomization,2012-08-30,PFS,Progression Free Survival,1,2,Pbo,Placebo,Pbo,Placebo,71,F
CDISCPILOT01,01-704-1266,Alive,ADSL,LSTALVDT,NA,1,2013-12-23,Alive During Study,2013-10-13,OS,Overall Survival,72,1,Xan_Hi,Xanomeline High Dose,Xan_Hi,Xanomeline High Dose,82,M
CDISCPILOT01,01-704-1266,Randomization,ADSL,RANDDT,NA,1,2013-10-13,Randomization,2013-10-13,PFS,Progression Free Survival,1,2,Xan_Hi,Xanomeline High Dose,Xan_Hi,Xanomeline High Dose,82,M
CDISCPILOT01,01-704-1323,Alive,ADSL,LSTALVDT,NA,1,2013-08-05,Alive During Study,2013-07-08,OS,Overall Survival,29,1,Xan_Lo,Xanomeline Low Dose,Xan_Lo,Xanomeline Low Dose,68,F
CDISCPILOT01,01-704-1323,Randomization,ADSL,RANDDT,NA,1,2013-07-08,Randomization,2013-07-08,PFS,Progression Free Survival,1,2,Xan_Lo,Xanomeline Low Dose,Xan_Lo,Xanomeline Low Dose,68,F
CDISCPILOT01,01-704-1325,Alive,ADSL,LSTALVDT,NA,1,2014-08-06,Alive During Study,2014-04-23,OS,Overall Survival,106,1,Xan_Lo,Xanomeline Low Dose,Xan_Lo,Xanomeline Low Dose,81,M
CDISCPILOT01,01-704-1325,Randomization,ADSL,RANDDT,NA,1,2014-04-23,Randomization,2014-04-23,PFS,Progression Free Survival,1,2,Xan_Lo,Xanomeline Low Dose,Xan_Lo,Xanomeline Low Dose,81,M
CDISCPILOT01,01-704-1332,Alive,ADSL,LSTALVDT,NA,1,2014-02-24,Alive During Study,2013-12-09,OS,Overall Survival,78,1,Xan_Hi,Xanomeline High Dose,Xan_Hi,Xanomeline High Dose,80,M
CDISCPILOT01,01-704-1332,Randomization,ADSL,RANDDT,NA,1,2013-12-09,Randomization,2013-12-09,PFS,Progression Free Survival,1,2,Xan_Hi,Xanomeline High Dose,Xan_Hi,Xanomeline High Dose,80,M
CDISCPILOT01,01-704-1351,Alive,ADSL,LSTALVDT,NA,1,2014-04-18,Alive During Study,2013-10-12,OS,Overall Survival,189,1,Pbo,Placebo,Pbo,Placebo,70,M
CDISCPILOT01,01-704-1351,Randomization,ADSL,RANDDT,NA,1,2013-10-12,Randomization,2013-10-12,PFS,Progression Free Survival,1,2,Pbo,Placebo,Pbo,Placebo,70,M
CDISCPILOT01,01-704-1388,Alive,ADSL,LSTALVDT,NA,1,2013-06-19,Alive During Study,2012-12-07,OS,Overall Survival,195,1,Pbo,Placebo,Pbo,Placebo,81,M
CDISCPILOT01,01-704-1388,Randomization,ADSL,RANDDT,NA,1,2012-12-07,Randomization,2012-12-07,PFS,Progression Free Survival,1,2,Pbo,Placebo,Pbo,Placebo,81,M
CDISCPILOT01,01-704-1435,Alive,ADSL,LSTALVDT,NA,1,2013-01-12,Alive During Study,2012-11-17,OS,Overall Survival,57,1,Pbo,Placebo,Pbo,Placebo,74,M
CDISCPILOT01,01-704-1435,Randomization,ADSL,RANDDT,NA,1,2012-11-17,Randomization,2012-11-17,PFS,Progression Free Survival,1,2,Pbo,Placebo,Pbo,Placebo,74,M
CDISCPILOT01,01-704-1445,Death,ADRS,ADT,8,0,2014-11-01,NA,2014-05-11,OS,Overall Survival,175,1,Pbo,Placebo,Pbo,Placebo,75,M
CDISCPILOT01,01-704-1445,Death,ADRS,ADT,8,0,2014-11-01,NA,2014-05-11,PFS,Progression Free Survival,175,2,Pbo,Placebo,Pbo,Placebo,75,M
CDISCPILOT01,01-705-1018,Randomization,ADSL,RANDDT,NA,1,2013-07-05,Randomization,2013-07-05,OS,Overall Survival,1,1,Pbo,Placebo,Pbo,Placebo,69,F
CDISCPILOT01,01-705-1018,Randomization,ADSL,RANDDT,NA,1,2013-07-05,Randomization,2013-07-05,PFS,Progression Free Survival,1,2,Pbo,Placebo,Pbo,Placebo,69,F
CDISCPILOT01,01-705-1031,Alive,ADSL,LSTALVDT,NA,1,2014-05-11,Alive During Study,2013-11-27,OS,Overall Survival,166,1,Xan_Lo,Xanomeline Low Dose,Xan_Lo,Xanomeline Low Dose,56,F
CDISCPILOT01,01-705-1031,Randomization,ADSL,RANDDT,NA,1,2013-11-27,Randomization,2013-11-27,PFS,Progression Free Survival,1,2,Xan_Lo,Xanomeline Low Dose,Xan_Lo,Xanomeline Low Dose,56,F
CDISCPILOT01,01-705-1059,Alive,ADSL,LSTALVDT,NA,1,2013-12-05,Alive During Study,2013-08-05,OS,Overall Survival,123,1,Pbo,Placebo,Pbo,Placebo,66,F
CDISCPILOT01,01-705-1059,Randomization,ADSL,RANDDT,NA,1,2013-08-05,Randomization,2013-08-05,PFS,Progression Free Survival,1,2,Pbo,Placebo,Pbo,Placebo,66,F
CDISCPILOT01,01-705-1186,Alive,ADSL,LSTALVDT,NA,1,2014-02-07,Alive During Study,2014-01-08,OS,Overall Survival,31,1,Pbo,Placebo,Pbo,Placebo,84,F
CDISCPILOT01,01-705-1186,Randomization,ADSL,RANDDT,NA,1,2014-01-08,Randomization,2014-01-08,PFS,Progression Free Survival,1,2,Pbo,Placebo,Pbo,Placebo,84,F
CDISCPILOT01,01-705-1199,Alive,ADSL,LSTALVDT,NA,1,2013-09-29,Alive During Study,2013-09-16,OS,Overall Survival,14,1,Xan_Lo,Xanomeline Low Dose,Xan_Lo,Xanomeline Low Dose,87,M
CDISCPILOT01,01-705-1199,Randomization,ADSL,RANDDT,NA,1,2013-09-16,Randomization,2013-09-16,PFS,Progression Free Survival,1,2,Xan_Lo,Xanomeline Low Dose,Xan_Lo,Xanomeline Low Dose,87,M
CDISCPILOT01,01-705-1280,Alive,ADSL,LSTALVDT,NA,1,2014-07-25,Alive During Study,2014-01-17,OS,Overall Survival,190,1,Xan_Hi,Xanomeline High Dose,Xan_Hi,Xanomeline High Dose,56,F
CDISCPILOT01,01-705-1280,Randomization,ADSL,RANDDT,NA,1,2014-01-17,Randomization,2014-01-17,PFS,Progression Free Survival,1,2,Xan_Hi,Xanomeline High Dose,Xan_Hi,Xanomeline High Dose,56,F
CDISCPILOT01,01-705-1281,Alive,ADSL,LSTALVDT,NA,1,2014-03-17,Alive During Study,2013-11-28,OS,Overall Survival,110,1,Xan_Hi,Xanomeline High Dose,Xan_Hi,Xanomeline High Dose,73,F
CDISCPILOT01,01-705-1281,Randomization,ADSL,RANDDT,NA,1,2013-11-28,Randomization,2013-11-28,PFS,Progression Free Survival,1,2,Xan_Hi,Xanomeline High Dose,Xan_Hi,Xanomeline High Dose,73,F
CDISCPILOT01,01-705-1282,Alive,ADSL,LSTALVDT,NA,1,2013-06-24,Alive During Study,2012-12-26,OS,Overall Survival,181,1,Pbo,Placebo,Pbo,Placebo,70,F
CDISCPILOT01,01-705-1282,Randomization,ADSL,RANDDT,NA,1,2012-12-26,Randomization,2012-12-26,PFS,Progression Free Survival,1,2,Pbo,Placebo,Pbo,Placebo,70,F
CDISCPILOT01,01-705-1292,Alive,ADSL,LSTALVDT,NA,1,2014-05-14,Alive During Study,2013-10-14,OS,Overall Survival,213,1,Xan_Lo,Xanomeline Low Dose,Xan_Lo,Xanomeline Low Dose,60,F
CDISCPILOT01,01-705-1292,Randomization,ADSL,RANDDT,NA,1,2013-10-14,Randomization,2013-10-14,PFS,Progression Free Survival,1,2,Xan_Lo,Xanomeline Low Dose,Xan_Lo,Xanomeline Low Dose,60,F
CDISCPILOT01,01-705-1303,Alive,ADSL,LSTALVDT,NA,1,2014-04-07,Alive During Study,2013-12-16,OS,Overall Survival,113,1,Xan_Hi,Xanomeline High Dose,Xan_Hi,Xanomeline High Dose,72,M
CDISCPILOT01,01-705-1303,Randomization,ADSL,RANDDT,NA,1,2013-12-16,Randomization,2013-12-16,PFS,Progression Free Survival,1,2,Xan_Hi,Xanomeline High Dose,Xan_Hi,Xanomeline High Dose,72,M
CDISCPILOT01,01-705-1310,Alive,ADSL,LSTALVDT,NA,1,2014-01-23,Alive During Study,2013-11-02,OS,Overall Survival,83,1,Xan_Hi,Xanomeline High Dose,Xan_Hi,Xanomeline High Dose,74,F
CDISCPILOT01,01-705-1310,Randomization,ADSL,RANDDT,NA,1,2013-11-02,Randomization,2013-11-02,PFS,Progression Free Survival,1,2,Xan_Hi,Xanomeline High Dose,Xan_Hi,Xanomeline High Dose,74,F
CDISCPILOT01,01-705-1349,Alive,ADSL,LSTALVDT,NA,1,2013-09-08,Alive During Study,2013-03-10,OS,Overall Survival,183,1,Pbo,Placebo,Pbo,Placebo,86,F
CDISCPILOT01,01-705-1349,Randomization,ADSL,RANDDT,NA,1,2013-03-10,Randomization,2013-03-10,PFS,Progression Free Survival,1,2,Pbo,Placebo,Pbo,Placebo,86,F
CDISCPILOT01,01-705-1377,Alive,ADSL,LSTALVDT,NA,1,2014-02-07,Alive During Study,2014-01-04,OS,Overall Survival,35,1,Xan_Hi,Xanomeline High Dose,Xan_Hi,Xanomeline High Dose,63,F
CDISCPILOT01,01-705-1377,Randomization,ADSL,RANDDT,NA,1,2014-01-04,Randomization,2014-01-04,PFS,Progression Free Survival,1,2,Xan_Hi,Xanomeline High Dose,Xan_Hi,Xanomeline High Dose,63,F
CDISCPILOT01,01-705-1382,Randomization,ADSL,RANDDT,NA,1,2013-05-13,Randomization,2013-05-13,OS,Overall Survival,1,1,Xan_Hi,Xanomeline High Dose,Xan_Lo,Xanomeline Low Dose,82,M
CDISCPILOT01,01-705-1382,Randomization,ADSL,RANDDT,NA,1,2013-05-13,Randomization,2013-05-13,PFS,Progression Free Survival,1,2,Xan_Hi,Xanomeline High Dose,Xan_Lo,Xanomeline Low Dose,82,M
CDISCPILOT01,01-705-1393,Alive,ADSL,LSTALVDT,NA,1,2013-02-20,Alive During Study,2012-09-07,OS,Overall Survival,167,1,Xan_Lo,Xanomeline Low Dose,Xan_Lo,Xanomeline Low Dose,84,F
CDISCPILOT01,01-705-1393,Randomization,ADSL,RANDDT,NA,1,2012-09-07,Randomization,2012-09-07,PFS,Progression Free Survival,1,2,Xan_Lo,Xanomeline Low Dose,Xan_Lo,Xanomeline Low Dose,84,F
CDISCPILOT01,01-705-1431,Alive,ADSL,LSTALVDT,NA,1,2013-12-19,Alive During Study,2013-06-23,OS,Overall Survival,180,1,Xan_Lo,Xanomeline Low Dose,Xan_Lo,Xanomeline Low Dose,68,F
CDISCPILOT01,01-705-1431,Randomization,ADSL,RANDDT,NA,1,2013-06-23,Randomization,2013-06-23,PFS,Progression Free Survival,1,2,Xan_Lo,Xanomeline Low Dose,Xan_Lo,Xanomeline Low Dose,68,F
CDISCPILOT01,01-706-1041,Alive,ADSL,LSTALVDT,NA,1,2014-07-29,Alive During Study,2013-12-31,OS,Overall Survival,211,1,Pbo,Placebo,Pbo,Placebo,64,F
CDISCPILOT01,01-706-1041,Randomization,ADSL,RANDDT,NA,1,2013-12-31,Randomization,2013-12-31,PFS,Progression Free Survival,1,2,Pbo,Placebo,Pbo,Placebo,64,F
CDISCPILOT01,01-706-1049,Alive,ADSL,LSTALVDT,NA,1,2013-06-25,Alive During Study,2013-05-14,OS,Overall Survival,43,1,Xan_Hi,Xanomeline High Dose,Xan_Hi,Xanomeline High Dose,60,F
CDISCPILOT01,01-706-1049,Randomization,ADSL,RANDDT,NA,1,2013-05-14,Randomization,2013-05-14,PFS,Progression Free Survival,1,2,Xan_Hi,Xanomeline High Dose,Xan_Hi,Xanomeline High Dose,60,F
CDISCPILOT01,01-706-1384,Alive,ADSL,LSTALVDT,NA,1,2012-09-29,Alive During Study,2012-09-15,OS,Overall Survival,15,1,Xan_Lo,Xanomeline Low Dose,Xan_Lo,Xanomeline Low Dose,74,F
CDISCPILOT01,01-706-1384,Randomization,ADSL,RANDDT,NA,1,2012-09-15,Randomization,2012-09-15,PFS,Progression Free Survival,1,2,Xan_Lo,Xanomeline Low Dose,Xan_Lo,Xanomeline Low Dose,74,F
CDISCPILOT01,01-707-1037,Alive,ADSL,LSTALVDT,NA,1,2014-01-08,Alive During Study,2013-12-20,OS,Overall Survival,20,1,Xan_Lo,Xanomeline Low Dose,Xan_Lo,Xanomeline Low Dose,72,F
CDISCPILOT01,01-707-1037,Randomization,ADSL,RANDDT,NA,1,2013-12-20,Randomization,2013-12-20,PFS,Progression Free Survival,1,2,Xan_Lo,Xanomeline Low Dose,Xan_Lo,Xanomeline Low Dose,72,F
CDISCPILOT01,01-707-1206,Alive,ADSL,LSTALVDT,NA,1,2014-04-27,Alive During Study,2013-10-28,OS,Overall Survival,182,1,Pbo,Placebo,Pbo,Placebo,65,M
CDISCPILOT01,01-707-1206,Randomization,ADSL,RANDDT,NA,1,2013-10-28,Randomization,2013-10-28,PFS,Progression Free Survival,1,2,Pbo,Placebo,Pbo,Placebo,65,M
CDISCPILOT01,01-708-1019,Alive,ADSL,LSTALVDT,NA,1,2014-01-23,Alive During Study,2013-12-20,OS,Overall Survival,35,1,Xan_Lo,Xanomeline Low Dose,Xan_Lo,Xanomeline Low Dose,68,M
CDISCPILOT01,01-708-1019,Randomization,ADSL,RANDDT,NA,1,2013-12-20,Randomization,2013-12-20,PFS,Progression Free Survival,1,2,Xan_Lo,Xanomeline Low Dose,Xan_Lo,Xanomeline Low Dose,68,M
CDISCPILOT01,01-708-1032,Alive,ADSL,LSTALVDT,NA,1,2013-03-09,Alive During Study,2013-02-09,OS,Overall Survival,29,1,Xan_Lo,Xanomeline Low Dose,Xan_Lo,Xanomeline Low Dose,62,M
CDISCPILOT01,01-708-1032,Randomization,ADSL,RANDDT,NA,1,2013-02-09,Randomization,2013-02-09,PFS,Progression Free Survival,1,2,Xan_Lo,Xanomeline Low Dose,Xan_Lo,Xanomeline Low Dose,62,M
CDISCPILOT01,01-708-1084,Alive,ADSL,LSTALVDT,NA,1,2013-11-11,Alive During Study,2013-05-09,OS,Overall Survival,187,1,Xan_Lo,Xanomeline Low Dose,Xan_Lo,Xanomeline Low Dose,73,F
CDISCPILOT01,01-708-1084,Randomization,ADSL,RANDDT,NA,1,2013-05-09,Randomization,2013-05-09,PFS,Progression Free Survival,1,2,Xan_Lo,Xanomeline Low Dose,Xan_Lo,Xanomeline Low Dose,73,F
CDISCPILOT01,01-708-1087,Alive,ADSL,LSTALVDT,NA,1,2013-04-28,Alive During Study,2012-10-22,OS,Overall Survival,189,1,Pbo,Placebo,Pbo,Placebo,74,F
CDISCPILOT01,01-708-1087,Randomization,ADSL,RANDDT,NA,1,2012-10-22,Randomization,2012-10-22,PFS,Progression Free Survival,1,2,Pbo,Placebo,Pbo,Placebo,74,F
CDISCPILOT01,01-708-1158,Alive,ADSL,LSTALVDT,NA,1,2014-03-22,Alive During Study,2014-02-08,OS,Overall Survival,43,1,Pbo,Placebo,Pbo,Placebo,81,F
CDISCPILOT01,01-708-1158,Randomization,ADSL,RANDDT,NA,1,2014-02-08,Randomization,2014-02-08,PFS,Progression Free Survival,1,2,Pbo,Placebo,Pbo,Placebo,81,F
CDISCPILOT01,01-708-1171,Alive,ADSL,LSTALVDT,NA,1,2013-06-04,Alive During Study,2012-12-06,OS,Overall Survival,181,1,Pbo,Placebo,Pbo,Placebo,77,F
CDISCPILOT01,01-708-1171,Randomization,ADSL,RANDDT,NA,1,2012-12-06,Randomization,2012-12-06,PFS,Progression Free Survival,1,2,Pbo,Placebo,Pbo,Placebo,77,F
CDISCPILOT01,01-708-1178,Alive,ADSL,LSTALVDT,NA,1,2014-04-06,Alive During Study,2013-12-29,OS,Overall Survival,99,1,Xan_Hi,Xanomeline High Dose,Xan_Hi,Xanomeline High Dose,77,F
CDISCPILOT01,01-708-1178,Randomization,ADSL,RANDDT,NA,1,2013-12-29,Randomization,2013-12-29,PFS,Progression Free Survival,1,2,Xan_Hi,Xanomeline High Dose,Xan_Hi,Xanomeline High Dose,77,F
CDISCPILOT01,01-708-1213,Alive,ADSL,LSTALVDT,NA,1,2013-02-22,Alive During Study,2013-02-09,OS,Overall Survival,14,1,Xan_Hi,Xanomeline High Dose,Xan_Lo,Xanomeline Low Dose,76,F
CDISCPILOT01,01-708-1213,Randomization,ADSL,RANDDT,NA,1,2013-02-09,Randomization,2013-02-09,PFS,Progression Free Survival,1,2,Xan_Hi,Xanomeline High Dose,Xan_Lo,Xanomeline Low Dose,76,F
CDISCPILOT01,01-708-1216,Alive,ADSL,LSTALVDT,NA,1,2012-12-13,Alive During Study,2012-10-24,OS,Overall Survival,51,1,Xan_Hi,Xanomeline High Dose,Xan_Hi,Xanomeline High Dose,78,M
CDISCPILOT01,01-708-1216,Randomization,ADSL,RANDDT,NA,1,2012-10-24,Randomization,2012-10-24,PFS,Progression Free Survival,1,2,Xan_Hi,Xanomeline High Dose,Xan_Hi,Xanomeline High Dose,78,M
CDISCPILOT01,01-708-1236,Randomization,ADSL,RANDDT,NA,1,2013-09-21,Randomization,2013-09-21,OS,Overall Survival,1,1,Xan_Hi,Xanomeline High Dose,Xan_Lo,Xanomeline Low Dose,86,F
CDISCPILOT01,01-708-1236,Randomization,ADSL,RANDDT,NA,1,2013-09-21,Randomization,2013-09-21,PFS,Progression Free Survival,1,2,Xan_Hi,Xanomeline High Dose,Xan_Lo,Xanomeline Low Dose,86,F
CDISCPILOT01,01-708-1253,Alive,ADSL,LSTALVDT,NA,1,2013-11-05,Alive During Study,2013-05-07,OS,Overall Survival,183,1,Pbo,Placebo,Pbo,Placebo,61,M
CDISCPILOT01,01-708-1253,Randomization,ADSL,RANDDT,NA,1,2013-05-07,Randomization,2013-05-07,PFS,Progression Free Survival,1,2,Pbo,Placebo,Pbo,Placebo,61,M
CDISCPILOT01,01-708-1272,Alive,ADSL,LSTALVDT,NA,1,2013-04-04,Alive During Study,2013-02-06,OS,Overall Survival,58,1,Xan_Lo,Xanomeline Low Dose,Xan_Lo,Xanomeline Low Dose,82,M
CDISCPILOT01,01-708-1272,Randomization,ADSL,RANDDT,NA,1,2013-02-06,Randomization,2013-02-06,PFS,Progression Free Survival,1,2,Xan_Lo,Xanomeline Low Dose,Xan_Lo,Xanomeline Low Dose,82,M
CDISCPILOT01,01-708-1286,Alive,ADSL,LSTALVDT,NA,1,2014-03-08,Alive During Study,2013-09-10,OS,Overall Survival,180,1,Pbo,Placebo,Pbo,Placebo,80,F
CDISCPILOT01,01-708-1286,Randomization,ADSL,RANDDT,NA,1,2013-09-10,Randomization,2013-09-10,PFS,Progression Free Survival,1,2,Pbo,Placebo,Pbo,Placebo,80,F
CDISCPILOT01,01-708-1296,Alive,ADSL,LSTALVDT,NA,1,2013-12-12,Alive During Study,2013-06-14,OS,Overall Survival,182,1,Pbo,Placebo,Pbo,Placebo,57,M
CDISCPILOT01,01-708-1296,Randomization,ADSL,RANDDT,NA,1,2013-06-14,Randomization,2013-06-14,PFS,Progression Free Survival,1,2,Pbo,Placebo,Pbo,Placebo,57,M
CDISCPILOT01,01-708-1297,Alive,ADSL,LSTALVDT,NA,1,2013-05-08,Alive During Study,2013-01-25,OS,Overall Survival,104,1,Xan_Lo,Xanomeline Low Dose,Xan_Lo,Xanomeline Low Dose,61,M
CDISCPILOT01,01-708-1297,Randomization,ADSL,RANDDT,NA,1,2013-01-25,Randomization,2013-01-25,PFS,Progression Free Survival,1,2,Xan_Lo,Xanomeline Low Dose,Xan_Lo,Xanomeline Low Dose,61,M
CDISCPILOT01,01-708-1316,Alive,ADSL,LSTALVDT,NA,1,2014-03-01,Alive During Study,2013-08-23,OS,Overall Survival,191,1,Pbo,Placebo,Pbo,Placebo,74,F
CDISCPILOT01,01-708-1316,Randomization,ADSL,RANDDT,NA,1,2013-08-23,Randomization,2013-08-23,PFS,Progression Free Survival,1,2,Pbo,Placebo,Pbo,Placebo,74,F
CDISCPILOT01,01-708-1336,Alive,ADSL,LSTALVDT,NA,1,2013-06-05,Alive During Study,2012-12-07,OS,Overall Survival,181,1,Xan_Hi,Xanomeline High Dose,Xan_Hi,Xanomeline High Dose,73,M
CDISCPILOT01,01-708-1336,Randomization,ADSL,RANDDT,NA,1,2012-12-07,Randomization,2012-12-07,PFS,Progression Free Survival,1,2,Xan_Hi,Xanomeline High Dose,Xan_Hi,Xanomeline High Dose,73,M
CDISCPILOT01,01-708-1342,Alive,ADSL,LSTALVDT,NA,1,2013-06-28,Alive During Study,2012-12-29,OS,Overall Survival,182,1,Pbo,Placebo,Pbo,Placebo,59,F
CDISCPILOT01,01-708-1342,Randomization,ADSL,RANDDT,NA,1,2012-12-29,Randomization,2012-12-29,PFS,Progression Free Survival,1,2,Pbo,Placebo,Pbo,Placebo,59,F
CDISCPILOT01,01-708-1347,Alive,ADSL,LSTALVDT,NA,1,2013-06-25,Alive During Study,2013-04-20,OS,Overall Survival,67,1,Xan_Hi,Xanomeline High Dose,Xan_Hi,Xanomeline High Dose,61,F
CDISCPILOT01,01-708-1347,Randomization,ADSL,RANDDT,NA,1,2013-04-20,Randomization,2013-04-20,PFS,Progression Free Survival,1,2,Xan_Hi,Xanomeline High Dose,Xan_Hi,Xanomeline High Dose,61,F
CDISCPILOT01,01-708-1348,Alive,ADSL,LSTALVDT,NA,1,2014-02-13,Alive During Study,2013-08-05,OS,Overall Survival,193,1,Xan_Lo,Xanomeline Low Dose,Xan_Lo,Xanomeline Low Dose,79,F
CDISCPILOT01,01-708-1348,Randomization,ADSL,RANDDT,NA,1,2013-08-05,Randomization,2013-08-05,PFS,Progression Free Survival,1,2,Xan_Lo,Xanomeline Low Dose,Xan_Lo,Xanomeline Low Dose,79,F
CDISCPILOT01,01-708-1353,Alive,ADSL,LSTALVDT,NA,1,2013-09-10,Alive During Study,2013-07-04,OS,Overall Survival,69,1,Xan_Lo,Xanomeline Low Dose,Xan_Lo,Xanomeline Low Dose,87,F
CDISCPILOT01,01-708-1353,Randomization,ADSL,RANDDT,NA,1,2013-07-04,Randomization,2013-07-04,PFS,Progression Free Survival,1,2,Xan_Lo,Xanomeline Low Dose,Xan_Lo,Xanomeline Low Dose,87,F
CDISCPILOT01,01-708-1372,Alive,ADSL,LSTALVDT,NA,1,2013-04-19,Alive During Study,2013-04-12,OS,Overall Survival,8,1,Xan_Hi,Xanomeline High Dose,Xan_Lo,Xanomeline Low Dose,84,M
CDISCPILOT01,01-708-1372,Randomization,ADSL,RANDDT,NA,1,2013-04-12,Randomization,2013-04-12,PFS,Progression Free Survival,1,2,Xan_Hi,Xanomeline High Dose,Xan_Lo,Xanomeline Low Dose,84,M
CDISCPILOT01,01-708-1378,Alive,ADSL,LSTALVDT,NA,1,2014-01-28,Alive During Study,2013-09-03,OS,Overall Survival,148,1,Pbo,Placebo,Pbo,Placebo,67,M
CDISCPILOT01,01-708-1378,Randomization,ADSL,RANDDT,NA,1,2013-09-03,Randomization,2013-09-03,PFS,Progression Free Survival,1,2,Pbo,Placebo,Pbo,Placebo,67,M
CDISCPILOT01,01-708-1406,Alive,ADSL,LSTALVDT,NA,1,2014-07-02,Alive During Study,2013-12-26,OS,Overall Survival,189,1,Xan_Hi,Xanomeline High Dose,Xan_Hi,Xanomeline High Dose,71,F
CDISCPILOT01,01-708-1406,Randomization,ADSL,RANDDT,NA,1,2013-12-26,Randomization,2013-12-26,PFS,Progression Free Survival,1,2,Xan_Hi,Xanomeline High Dose,Xan_Hi,Xanomeline High Dose,71,F
CDISCPILOT01,01-708-1428,Alive,ADSL,LSTALVDT,NA,1,2014-01-31,Alive During Study,2013-11-09,OS,Overall Survival,84,1,Xan_Lo,Xanomeline Low Dose,Xan_Lo,Xanomeline Low Dose,84,F
CDISCPILOT01,01-708-1428,Randomization,ADSL,RANDDT,NA,1,2013-11-09,Randomization,2013-11-09,PFS,Progression Free Survival,1,2,Xan_Lo,Xanomeline Low Dose,Xan_Lo,Xanomeline Low Dose,84,F
CDISCPILOT01,01-709-1001,Alive,ADSL,LSTALVDT,NA,1,2014-04-08,Alive During Study,2013-10-08,OS,Overall Survival,183,1,Pbo,Placebo,Pbo,Placebo,76,F
CDISCPILOT01,01-709-1001,Randomization,ADSL,RANDDT,NA,1,2013-10-08,Randomization,2013-10-08,PFS,Progression Free Survival,1,2,Pbo,Placebo,Pbo,Placebo,76,F
CDISCPILOT01,01-709-1007,Alive,ADSL,LSTALVDT,NA,1,2012-09-01,Alive During Study,2012-07-31,OS,Overall Survival,33,1,Xan_Lo,Xanomeline Low Dose,Xan_Lo,Xanomeline Low Dose,54,F
CDISCPILOT01,01-709-1007,Randomization,ADSL,RANDDT,NA,1,2012-07-31,Randomization,2012-07-31,PFS,Progression Free Survival,1,2,Xan_Lo,Xanomeline Low Dose,Xan_Lo,Xanomeline Low Dose,54,F
CDISCPILOT01,01-709-1020,Alive,ADSL,LSTALVDT,NA,1,2013-06-01,Alive During Study,2012-12-01,OS,Overall Survival,183,1,Xan_Lo,Xanomeline Low Dose,Xan_Lo,Xanomeline Low Dose,72,F
CDISCPILOT01,01-709-1020,Randomization,ADSL,RANDDT,NA,1,2012-12-01,Randomization,2012-12-01,PFS,Progression Free Survival,1,2,Xan_Lo,Xanomeline Low Dose,Xan_Lo,Xanomeline Low Dose,72,F
CDISCPILOT01,01-709-1029,Alive,ADSL,LSTALVDT,NA,1,2013-06-26,Alive During Study,2012-12-25,OS,Overall Survival,184,1,Xan_Hi,Xanomeline High Dose,Xan_Hi,Xanomeline High Dose,82,M
CDISCPILOT01,01-709-1029,Randomization,ADSL,RANDDT,NA,1,2012-12-25,Randomization,2012-12-25,PFS,Progression Free Survival,1,2,Xan_Hi,Xanomeline High Dose,Xan_Hi,Xanomeline High Dose,82,M
CDISCPILOT01,01-709-1081,Alive,ADSL,LSTALVDT,NA,1,2014-05-10,Alive During Study,2014-01-18,OS,Overall Survival,113,1,Xan_Lo,Xanomeline Low Dose,Xan_Lo,Xanomeline Low Dose,86,F
CDISCPILOT01,01-709-1081,Randomization,ADSL,RANDDT,NA,1,2014-01-18,Randomization,2014-01-18,PFS,Progression Free Survival,1,2,Xan_Lo,Xanomeline Low Dose,Xan_Lo,Xanomeline Low Dose,86,F
CDISCPILOT01,01-709-1088,Alive,ADSL,LSTALVDT,NA,1,2014-10-09,Alive During Study,2014-04-12,OS,Overall Survival,181,1,Pbo,Placebo,Pbo,Placebo,69,M
CDISCPILOT01,01-709-1088,Randomization,ADSL,RANDDT,NA,1,2014-04-12,Randomization,2014-04-12,PFS,Progression Free Survival,1,2,Pbo,Placebo,Pbo,Placebo,69,M
CDISCPILOT01,01-709-1099,Alive,ADSL,LSTALVDT,NA,1,2014-04-25,Alive During Study,2013-10-25,OS,Overall Survival,183,1,Xan_Hi,Xanomeline High Dose,Xan_Hi,Xanomeline High Dose,79,F
CDISCPILOT01,01-709-1099,Randomization,ADSL,RANDDT,NA,1,2013-10-25,Randomization,2013-10-25,PFS,Progression Free Survival,1,2,Xan_Hi,Xanomeline High Dose,Xan_Hi,Xanomeline High Dose,79,F
CDISCPILOT01,01-709-1102,Alive,ADSL,LSTALVDT,NA,1,2013-03-31,Alive During Study,2013-01-15,OS,Overall Survival,76,1,Xan_Lo,Xanomeline Low Dose,Xan_Lo,Xanomeline Low Dose,71,F
CDISCPILOT01,01-709-1102,Randomization,ADSL,RANDDT,NA,1,2013-01-15,Randomization,2013-01-15,PFS,Progression Free Survival,1,2,Xan_Lo,Xanomeline Low Dose,Xan_Lo,Xanomeline Low Dose,71,F
CDISCPILOT01,01-709-1168,Alive,ADSL,LSTALVDT,NA,1,2013-10-11,Alive During Study,2013-08-02,OS,Overall Survival,71,1,Xan_Hi,Xanomeline High Dose,Xan_Hi,Xanomeline High Dose,72,F
CDISCPILOT01,01-709-1168,Randomization,ADSL,RANDDT,NA,1,2013-08-02,Randomization,2013-08-02,PFS,Progression Free Survival,1,2,Xan_Hi,Xanomeline High Dose,Xan_Hi,Xanomeline High Dose,72,F
CDISCPILOT01,01-709-1217,Alive,ADSL,LSTALVDT,NA,1,2013-06-25,Alive During Study,2013-03-04,OS,Overall Survival,114,1,Xan_Lo,Xanomeline Low Dose,Xan_Lo,Xanomeline Low Dose,77,M
CDISCPILOT01,01-709-1217,Randomization,ADSL,RANDDT,NA,1,2013-03-04,Randomization,2013-03-04,PFS,Progression Free Survival,1,2,Xan_Lo,Xanomeline Low Dose,Xan_Lo,Xanomeline Low Dose,77,M
CDISCPILOT01,01-709-1238,Alive,ADSL,LSTALVDT,NA,1,2013-08-07,Alive During Study,2013-05-15,OS,Overall Survival,85,1,Xan_Hi,Xanomeline High Dose,Xan_Hi,Xanomeline High Dose,69,M
CDISCPILOT01,01-709-1238,Randomization,ADSL,RANDDT,NA,1,2013-05-15,Randomization,2013-05-15,PFS,Progression Free Survival,1,2,Xan_Hi,Xanomeline High Dose,Xan_Hi,Xanomeline High Dose,69,M
CDISCPILOT01,01-709-1259,Alive,ADSL,LSTALVDT,NA,1,2013-06-13,Alive During Study,2013-01-26,OS,Overall Survival,139,1,Pbo,Placebo,Pbo,Placebo,82,M
CDISCPILOT01,01-709-1259,Randomization,ADSL,RANDDT,NA,1,2013-01-26,Randomization,2013-01-26,PFS,Progression Free Survival,1,2,Pbo,Placebo,Pbo,Placebo,82,M
CDISCPILOT01,01-709-1285,Alive,ADSL,LSTALVDT,NA,1,2013-05-31,Alive During Study,2013-03-24,OS,Overall Survival,69,1,Xan_Lo,Xanomeline Low Dose,Xan_Lo,Xanomeline Low Dose,87,M
CDISCPILOT01,01-709-1285,Randomization,ADSL,RANDDT,NA,1,2013-03-24,Randomization,2013-03-24,PFS,Progression Free Survival,1,2,Xan_Lo,Xanomeline Low Dose,Xan_Lo,Xanomeline Low Dose,87,M
CDISCPILOT01,01-709-1301,Alive,ADSL,LSTALVDT,NA,1,2014-01-17,Alive During Study,2013-07-19,OS,Overall Survival,183,1,Pbo,Placebo,Pbo,Placebo,62,F
CDISCPILOT01,01-709-1301,Randomization,ADSL,RANDDT,NA,1,2013-07-19,Randomization,2013-07-19,PFS,Progression Free Survival,1,2,Pbo,Placebo,Pbo,Placebo,62,F
CDISCPILOT01,01-709-1306,Alive,ADSL,LSTALVDT,NA,1,2014-06-25,Alive During Study,2014-02-03,OS,Overall Survival,143,1,Pbo,Placebo,Pbo,Placebo,60,F
CDISCPILOT01,01-709-1306,Randomization,ADSL,RANDDT,NA,1,2014-02-03,Randomization,2014-02-03,PFS,Progression Free Survival,1,2,Pbo,Placebo,Pbo,Placebo,60,F
CDISCPILOT01,01-709-1309,Alive,ADSL,LSTALVDT,NA,1,2013-12-19,Alive During Study,2013-06-19,OS,Overall Survival,184,1,Xan_Hi,Xanomeline High Dose,Xan_Hi,Xanomeline High Dose,65,M
CDISCPILOT01,01-709-1309,Randomization,ADSL,RANDDT,NA,1,2013-06-19,Randomization,2013-06-19,PFS,Progression Free Survival,1,2,Xan_Hi,Xanomeline High Dose,Xan_Hi,Xanomeline High Dose,65,M
CDISCPILOT01,01-709-1312,Alive,ADSL,LSTALVDT,NA,1,2014-10-19,Alive During Study,2014-04-20,OS,Overall Survival,183,1,Pbo,Placebo,Pbo,Placebo,68,F
CDISCPILOT01,01-709-1312,Randomization,ADSL,RANDDT,NA,1,2014-04-20,Randomization,2014-04-20,PFS,Progression Free Survival,1,2,Pbo,Placebo,Pbo,Placebo,68,F
CDISCPILOT01,01-709-1326,Alive,ADSL,LSTALVDT,NA,1,2013-10-02,Alive During Study,2013-04-05,OS,Overall Survival,181,1,Xan_Lo,Xanomeline Low Dose,Xan_Lo,Xanomeline Low Dose,75,F
CDISCPILOT01,01-709-1326,Randomization,ADSL,RANDDT,NA,1,2013-04-05,Randomization,2013-04-05,PFS,Progression Free Survival,1,2,Xan_Lo,Xanomeline Low Dose,Xan_Lo,Xanomeline Low Dose,75,F
CDISCPILOT01,01-709-1329,Alive,ADSL,LSTALVDT,NA,1,2013-08-29,Alive During Study,2013-08-15,OS,Overall Survival,15,1,Xan_Hi,Xanomeline High Dose,Xan_Lo,Xanomeline Low Dose,70,M
CDISCPILOT01,01-709-1329,Randomization,ADSL,RANDDT,NA,1,2013-08-15,Randomization,2013-08-15,PFS,Progression Free Survival,1,2,Xan_Hi,Xanomeline High Dose,Xan_Lo,Xanomeline Low Dose,70,M
CDISCPILOT01,01-709-1339,Alive,ADSL,LSTALVDT,NA,1,2013-06-24,Alive During Study,2012-12-23,OS,Overall Survival,184,1,Pbo,Placebo,Pbo,Placebo,81,M
CDISCPILOT01,01-709-1339,Randomization,ADSL,RANDDT,NA,1,2012-12-23,Randomization,2012-12-23,PFS,Progression Free Survival,1,2,Pbo,Placebo,Pbo,Placebo,81,M
CDISCPILOT01,01-709-1424,Alive,ADSL,LSTALVDT,NA,1,2013-03-17,Alive During Study,2013-03-03,OS,Overall Survival,15,1,Xan_Hi,Xanomeline High Dose,Xan_Lo,Xanomeline Low Dose,77,M
CDISCPILOT01,01-709-1424,Randomization,ADSL,RANDDT,NA,1,2013-03-03,Randomization,2013-03-03,PFS,Progression Free Survival,1,2,Xan_Hi,Xanomeline High Dose,Xan_Lo,Xanomeline Low Dose,77,M
CDISCPILOT01,01-710-1002,Alive,ADSL,LSTALVDT,NA,1,2014-01-20,Alive During Study,2014-01-14,OS,Overall Survival,7,1,Xan_Lo,Xanomeline Low Dose,Xan_Lo,Xanomeline Low Dose,88,M
CDISCPILOT01,01-710-1002,Randomization,ADSL,RANDDT,NA,1,2014-01-14,Randomization,2014-01-14,PFS,Progression Free Survival,1,2,Xan_Lo,Xanomeline Low Dose,Xan_Lo,Xanomeline Low Dose,88,M
CDISCPILOT01,01-710-1006,Alive,ADSL,LSTALVDT,NA,1,2013-08-10,Alive During Study,2013-02-10,OS,Overall Survival,182,1,Xan_Hi,Xanomeline High Dose,Xan_Hi,Xanomeline High Dose,77,M
CDISCPILOT01,01-710-1006,Randomization,ADSL,RANDDT,NA,1,2013-02-10,Randomization,2013-02-10,PFS,Progression Free Survival,1,2,Xan_Hi,Xanomeline High Dose,Xan_Hi,Xanomeline High Dose,77,M
CDISCPILOT01,01-710-1021,Alive,ADSL,LSTALVDT,NA,1,2013-11-12,Alive During Study,2013-09-27,OS,Overall Survival,47,1,Xan_Hi,Xanomeline High Dose,Xan_Hi,Xanomeline High Dose,79,M
CDISCPILOT01,01-710-1021,Randomization,ADSL,RANDDT,NA,1,2013-09-27,Randomization,2013-09-27,PFS,Progression Free Survival,1,2,Xan_Hi,Xanomeline High Dose,Xan_Hi,Xanomeline High Dose,79,M
CDISCPILOT01,01-710-1027,Alive,ADSL,LSTALVDT,NA,1,2014-08-29,Alive During Study,2014-02-28,OS,Overall Survival,183,1,Pbo,Placebo,Pbo,Placebo,83,M
CDISCPILOT01,01-710-1027,Randomization,ADSL,RANDDT,NA,1,2014-02-28,Randomization,2014-02-28,PFS,Progression Free Survival,1,2,Pbo,Placebo,Pbo,Placebo,83,M
CDISCPILOT01,01-710-1045,Alive,ADSL,LSTALVDT,NA,1,2013-08-17,Alive During Study,2013-06-03,OS,Overall Survival,76,1,Xan_Lo,Xanomeline Low Dose,Xan_Lo,Xanomeline Low Dose,83,F
CDISCPILOT01,01-710-1045,Randomization,ADSL,RANDDT,NA,1,2013-06-03,Randomization,2013-06-03,PFS,Progression Free Survival,1,2,Xan_Lo,Xanomeline Low Dose,Xan_Lo,Xanomeline Low Dose,83,F
CDISCPILOT01,01-710-1053,Alive,ADSL,LSTALVDT,NA,1,2013-02-26,Alive During Study,2012-12-26,OS,Overall Survival,63,1,Xan_Lo,Xanomeline Low Dose,Xan_Lo,Xanomeline Low Dose,84,F
CDISCPILOT01,01-710-1053,Randomization,ADSL,RANDDT,NA,1,2012-12-26,Randomization,2012-12-26,PFS,Progression Free Survival,1,2,Xan_Lo,Xanomeline Low Dose,Xan_Lo,Xanomeline Low Dose,84,F
CDISCPILOT01,01-710-1060,Alive,ADSL,LSTALVDT,NA,1,2013-07-05,Alive During Study,2013-01-01,OS,Overall Survival,186,1,Pbo,Placebo,Pbo,Placebo,82,M
CDISCPILOT01,01-710-1060,Randomization,ADSL,RANDDT,NA,1,2013-01-01,Randomization,2013-01-01,PFS,Progression Free Survival,1,2,Pbo,Placebo,Pbo,Placebo,82,M
CDISCPILOT01,01-710-1070,Alive,ADSL,LSTALVDT,NA,1,2013-02-10,Alive During Study,2012-09-08,OS,Overall Survival,156,1,Xan_Hi,Xanomeline High Dose,Xan_Hi,Xanomeline High Dose,85,F
CDISCPILOT01,01-710-1070,Randomization,ADSL,RANDDT,NA,1,2012-09-08,Randomization,2012-09-08,PFS,Progression Free Survival,1,2,Xan_Hi,Xanomeline High Dose,Xan_Hi,Xanomeline High Dose,85,F
CDISCPILOT01,01-710-1077,Alive,ADSL,LSTALVDT,NA,1,2014-05-18,Alive During Study,2013-11-17,OS,Overall Survival,183,1,Pbo,Placebo,Pbo,Placebo,76,F
CDISCPILOT01,01-710-1077,Randomization,ADSL,RANDDT,NA,1,2013-11-17,Randomization,2013-11-17,PFS,Progression Free Survival,1,2,Pbo,Placebo,Pbo,Placebo,76,F
CDISCPILOT01,01-710-1078,Alive,ADSL,LSTALVDT,NA,1,2014-03-23,Alive During Study,2013-09-17,OS,Overall Survival,188,1,Pbo,Placebo,Pbo,Placebo,81,F
CDISCPILOT01,01-710-1078,Randomization,ADSL,RANDDT,NA,1,2013-09-17,Randomization,2013-09-17,PFS,Progression Free Survival,1,2,Pbo,Placebo,Pbo,Placebo,81,F
CDISCPILOT01,01-710-1083,Death,ADRS,ADT,8,0,2013-08-02,NA,2013-07-22,OS,Overall Survival,12,1,Pbo,Placebo,Pbo,Placebo,89,F
CDISCPILOT01,01-710-1083,Death,ADRS,ADT,8,0,2013-08-02,NA,2013-07-22,PFS,Progression Free Survival,12,2,Pbo,Placebo,Pbo,Placebo,89,F
CDISCPILOT01,01-710-1137,Alive,ADSL,LSTALVDT,NA,1,2013-11-13,Alive During Study,2013-10-11,OS,Overall Survival,34,1,Xan_Hi,Xanomeline High Dose,Xan_Hi,Xanomeline High Dose,79,F
CDISCPILOT01,01-710-1137,Randomization,ADSL,RANDDT,NA,1,2013-10-11,Randomization,2013-10-11,PFS,Progression Free Survival,1,2,Xan_Hi,Xanomeline High Dose,Xan_Hi,Xanomeline High Dose,79,F
CDISCPILOT01,01-710-1142,Alive,ADSL,LSTALVDT,NA,1,2012-10-23,Alive During Study,2012-10-02,OS,Overall Survival,22,1,Xan_Hi,Xanomeline High Dose,Xan_Hi,Xanomeline High Dose,76,F
CDISCPILOT01,01-710-1142,Randomization,ADSL,RANDDT,NA,1,2012-10-02,Randomization,2012-10-02,PFS,Progression Free Survival,1,2,Xan_Hi,Xanomeline High Dose,Xan_Hi,Xanomeline High Dose,76,F
CDISCPILOT01,01-710-1154,Alive,ADSL,LSTALVDT,NA,1,2014-05-09,Alive During Study,2014-03-29,OS,Overall Survival,42,1,Xan_Lo,Xanomeline Low Dose,Xan_Lo,Xanomeline Low Dose,84,M
CDISCPILOT01,01-710-1154,Randomization,ADSL,RANDDT,NA,1,2014-03-29,Randomization,2014-03-29,PFS,Progression Free Survival,1,2,Xan_Lo,Xanomeline Low Dose,Xan_Lo,Xanomeline Low Dose,84,M
CDISCPILOT01,01-710-1166,Alive,ADSL,LSTALVDT,NA,1,2013-03-30,Alive During Study,2012-11-30,OS,Overall Survival,121,1,Xan_Lo,Xanomeline Low Dose,Xan_Lo,Xanomeline Low Dose,81,F
CDISCPILOT01,01-710-1166,Randomization,ADSL,RANDDT,NA,1,2012-11-30,Randomization,2012-11-30,PFS,Progression Free Survival,1,2,Xan_Lo,Xanomeline Low Dose,Xan_Lo,Xanomeline Low Dose,81,F
CDISCPILOT01,01-710-1183,Alive,ADSL,LSTALVDT,NA,1,2014-05-17,Alive During Study,2013-11-16,OS,Overall Survival,183,1,Pbo,Placebo,Pbo,Placebo,80,F
CDISCPILOT01,01-710-1183,Randomization,ADSL,RANDDT,NA,1,2013-11-16,Randomization,2013-11-16,PFS,Progression Free Survival,1,2,Pbo,Placebo,Pbo,Placebo,80,F
CDISCPILOT01,01-710-1187,Alive,ADSL,LSTALVDT,NA,1,2013-05-12,Alive During Study,2012-11-10,OS,Overall Survival,184,1,Xan_Hi,Xanomeline High Dose,Xan_Hi,Xanomeline High Dose,78,F
CDISCPILOT01,01-710-1187,Randomization,ADSL,RANDDT,NA,1,2012-11-10,Randomization,2012-11-10,PFS,Progression Free Survival,1,2,Xan_Hi,Xanomeline High Dose,Xan_Hi,Xanomeline High Dose,78,F
CDISCPILOT01,01-710-1235,Alive,ADSL,LSTALVDT,NA,1,2013-03-27,Alive During Study,2012-09-26,OS,Overall Survival,183,1,Xan_Lo,Xanomeline Low Dose,Xan_Lo,Xanomeline Low Dose,56,F
CDISCPILOT01,01-710-1235,Randomization,ADSL,RANDDT,NA,1,2012-09-26,Randomization,2012-09-26,PFS,Progression Free Survival,1,2,Xan_Lo,Xanomeline Low Dose,Xan_Lo,Xanomeline Low Dose,56,F
CDISCPILOT01,01-710-1249,Alive,ADSL,LSTALVDT,NA,1,2014-06-28,Alive During Study,2013-12-28,OS,Overall Survival,183,1,Xan_Hi,Xanomeline High Dose,Xan_Hi,Xanomeline High Dose,79,M
CDISCPILOT01,01-710-1249,Randomization,ADSL,RANDDT,NA,1,2013-12-28,Randomization,2013-12-28,PFS,Progression Free Survival,1,2,Xan_Hi,Xanomeline High Dose,Xan_Hi,Xanomeline High Dose,79,M
CDISCPILOT01,01-710-1264,Alive,ADSL,LSTALVDT,NA,1,2013-10-12,Alive During Study,2013-06-13,OS,Overall Survival,122,1,Pbo,Placebo,Pbo,Placebo,78,M
CDISCPILOT01,01-710-1264,Randomization,ADSL,RANDDT,NA,1,2013-06-13,Randomization,2013-06-13,PFS,Progression Free Survival,1,2,Pbo,Placebo,Pbo,Placebo,78,M
CDISCPILOT01,01-710-1270,Alive,ADSL,LSTALVDT,NA,1,2014-03-01,Alive During Study,2014-02-12,OS,Overall Survival,18,1,Xan_Lo,Xanomeline Low Dose,Xan_Lo,Xanomeline Low Dose,83,F
CDISCPILOT01,01-710-1270,Randomization,ADSL,RANDDT,NA,1,2014-02-12,Randomization,2014-02-12,PFS,Progression Free Survival,1,2,Xan_Lo,Xanomeline Low Dose,Xan_Lo,Xanomeline Low Dose,83,F
CDISCPILOT01,01-710-1271,Alive,ADSL,LSTALVDT,NA,1,2012-11-26,Alive During Study,2012-09-27,OS,Overall Survival,61,1,Pbo,Placebo,Pbo,Placebo,86,F
CDISCPILOT01,01-710-1271,Randomization,ADSL,RANDDT,NA,1,2012-09-27,Randomization,2012-09-27,PFS,Progression Free Survival,1,2,Pbo,Placebo,Pbo,Placebo,86,F
CDISCPILOT01,01-710-1278,Alive,ADSL,LSTALVDT,NA,1,2013-03-07,Alive During Study,2012-12-24,OS,Overall Survival,74,1,Xan_Hi,Xanomeline High Dose,Xan_Hi,Xanomeline High Dose,81,M
CDISCPILOT01,01-710-1278,Randomization,ADSL,RANDDT,NA,1,2012-12-24,Randomization,2012-12-24,PFS,Progression Free Survival,1,2,Xan_Hi,Xanomeline High Dose,Xan_Hi,Xanomeline High Dose,81,M
CDISCPILOT01,01-710-1300,Alive,ADSL,LSTALVDT,NA,1,2013-02-19,Alive During Study,2012-12-15,OS,Overall Survival,67,1,Xan_Lo,Xanomeline Low Dose,Xan_Lo,Xanomeline Low Dose,78,F
CDISCPILOT01,01-710-1300,Randomization,ADSL,RANDDT,NA,1,2012-12-15,Randomization,2012-12-15,PFS,Progression Free Survival,1,2,Xan_Lo,Xanomeline Low Dose,Xan_Lo,Xanomeline Low Dose,78,F
CDISCPILOT01,01-710-1314,Alive,ADSL,LSTALVDT,NA,1,2013-05-24,Alive During Study,2013-04-24,OS,Overall Survival,31,1,Pbo,Placebo,Pbo,Placebo,78,F
CDISCPILOT01,01-710-1314,Randomization,ADSL,RANDDT,NA,1,2013-04-24,Randomization,2013-04-24,PFS,Progression Free Survival,1,2,Pbo,Placebo,Pbo,Placebo,78,F
CDISCPILOT01,01-710-1315,Alive,ADSL,LSTALVDT,NA,1,2013-07-16,Alive During Study,2013-02-27,OS,Overall Survival,140,1,Pbo,Placebo,Pbo,Placebo,83,F
CDISCPILOT01,01-710-1315,Randomization,ADSL,RANDDT,NA,1,2013-02-27,Randomization,2013-02-27,PFS,Progression Free Survival,1,2,Pbo,Placebo,Pbo,Placebo,83,F
CDISCPILOT01,01-710-1354,Alive,ADSL,LSTALVDT,NA,1,2013-05-01,Alive During Study,2012-11-11,OS,Overall Survival,172,1,Xan_Hi,Xanomeline High Dose,Xan_Hi,Xanomeline High Dose,73,M
CDISCPILOT01,01-710-1354,Randomization,ADSL,RANDDT,NA,1,2012-11-11,Randomization,2012-11-11,PFS,Progression Free Survival,1,2,Xan_Hi,Xanomeline High Dose,Xan_Hi,Xanomeline High Dose,73,M
CDISCPILOT01,01-710-1358,Alive,ADSL,LSTALVDT,NA,1,2013-02-09,Alive During Study,2012-09-17,OS,Overall Survival,146,1,Xan_Lo,Xanomeline Low Dose,Xan_Lo,Xanomeline Low Dose,82,M
CDISCPILOT01,01-710-1358,Randomization,ADSL,RANDDT,NA,1,2012-09-17,Randomization,2012-09-17,PFS,Progression Free Survival,1,2,Xan_Lo,Xanomeline Low Dose,Xan_Lo,Xanomeline Low Dose,82,M
CDISCPILOT01,01-710-1368,Alive,ADSL,LSTALVDT,NA,1,2014-04-24,Alive During Study,2013-10-23,OS,Overall Survival,184,1,Pbo,Placebo,Pbo,Placebo,88,F
CDISCPILOT01,01-710-1368,Randomization,ADSL,RANDDT,NA,1,2013-10-23,Randomization,2013-10-23,PFS,Progression Free Survival,1,2,Pbo,Placebo,Pbo,Placebo,88,F
CDISCPILOT01,01-710-1385,Alive,ADSL,LSTALVDT,NA,1,2013-02-18,Alive During Study,2012-10-29,OS,Overall Survival,113,1,Xan_Lo,Xanomeline Low Dose,Xan_Lo,Xanomeline Low Dose,77,M
CDISCPILOT01,01-710-1385,Randomization,ADSL,RANDDT,NA,1,2012-10-29,Randomization,2012-10-29,PFS,Progression Free Survival,1,2,Xan_Lo,Xanomeline Low Dose,Xan_Lo,Xanomeline Low Dose,77,M
CDISCPILOT01,01-710-1408,Alive,ADSL,LSTALVDT,NA,1,2013-07-12,Alive During Study,2013-01-05,OS,Overall Survival,189,1,Xan_Hi,Xanomeline High Dose,Xan_Hi,Xanomeline High Dose,80,M
CDISCPILOT01,01-710-1408,Randomization,ADSL,RANDDT,NA,1,2013-01-05,Randomization,2013-01-05,PFS,Progression Free Survival,1,2,Xan_Hi,Xanomeline High Dose,Xan_Hi,Xanomeline High Dose,80,M
CDISCPILOT01,01-711-1012,Alive,ADSL,LSTALVDT,NA,1,2013-05-02,Alive During Study,2013-04-03,OS,Overall Survival,30,1,Xan_Hi,Xanomeline High Dose,Xan_Hi,Xanomeline High Dose,67,F
CDISCPILOT01,01-711-1012,Randomization,ADSL,RANDDT,NA,1,2013-04-03,Randomization,2013-04-03,PFS,Progression Free Survival,1,2,Xan_Hi,Xanomeline High Dose,Xan_Hi,Xanomeline High Dose,67,F
CDISCPILOT01,01-711-1036,Alive,ADSL,LSTALVDT,NA,1,2013-02-10,Alive During Study,2012-07-29,OS,Overall Survival,197,1,Pbo,Placebo,Pbo,Placebo,70,M
CDISCPILOT01,01-711-1036,Randomization,ADSL,RANDDT,NA,1,2012-07-29,Randomization,2012-07-29,PFS,Progression Free Survival,1,2,Pbo,Placebo,Pbo,Placebo,70,M
CDISCPILOT01,01-711-1143,Alive,ADSL,LSTALVDT,NA,1,2013-06-01,Alive During Study,2013-04-03,OS,Overall Survival,60,1,Xan_Lo,Xanomeline Low Dose,Xan_Lo,Xanomeline Low Dose,76,F
CDISCPILOT01,01-711-1143,Randomization,ADSL,RANDDT,NA,1,2013-04-03,Randomization,2013-04-03,PFS,Progression Free Survival,1,2,Xan_Lo,Xanomeline Low Dose,Xan_Lo,Xanomeline Low Dose,76,F
CDISCPILOT01,01-711-1433,Alive,ADSL,LSTALVDT,NA,1,2013-02-06,Alive During Study,2013-01-27,OS,Overall Survival,11,1,Xan_Hi,Xanomeline High Dose,Xan_Lo,Xanomeline Low Dose,84,F
CDISCPILOT01,01-711-1433,Randomization,ADSL,RANDDT,NA,1,2013-01-27,Randomization,2013-01-27,PFS,Progression Free Survival,1,2,Xan_Hi,Xanomeline High Dose,Xan_Lo,Xanomeline Low Dose,84,F
CDISCPILOT01,01-713-1043,Alive,ADSL,LSTALVDT,NA,1,2014-03-24,Alive During Study,2013-09-15,OS,Overall Survival,191,1,Xan_Lo,Xanomeline Low Dose,Xan_Lo,Xanomeline Low Dose,78,F
CDISCPILOT01,01-713-1043,Randomization,ADSL,RANDDT,NA,1,2013-09-15,Randomization,2013-09-15,PFS,Progression Free Survival,1,2,Xan_Lo,Xanomeline Low Dose,Xan_Lo,Xanomeline Low Dose,78,F
CDISCPILOT01,01-713-1073,Alive,ADSL,LSTALVDT,NA,1,2014-10-05,Alive During Study,2014-03-30,OS,Overall Survival,190,1,Xan_Lo,Xanomeline Low Dose,Xan_Lo,Xanomeline Low Dose,74,F
CDISCPILOT01,01-713-1073,Randomization,ADSL,RANDDT,NA,1,2014-03-30,Randomization,2014-03-30,PFS,Progression Free Survival,1,2,Xan_Lo,Xanomeline Low Dose,Xan_Lo,Xanomeline Low Dose,74,F
CDISCPILOT01,01-713-1106,Alive,ADSL,LSTALVDT,NA,1,2013-05-06,Alive During Study,2012-10-31,OS,Overall Survival,188,1,Xan_Hi,Xanomeline High Dose,Xan_Hi,Xanomeline High Dose,74,M
CDISCPILOT01,01-713-1106,Randomization,ADSL,RANDDT,NA,1,2012-10-31,Randomization,2012-10-31,PFS,Progression Free Survival,1,2,Xan_Hi,Xanomeline High Dose,Xan_Hi,Xanomeline High Dose,74,M
CDISCPILOT01,01-713-1141,Alive,ADSL,LSTALVDT,NA,1,2013-08-06,Alive During Study,2013-05-31,OS,Overall Survival,68,1,Xan_Hi,Xanomeline High Dose,Xan_Hi,Xanomeline High Dose,79,M
CDISCPILOT01,01-713-1141,Randomization,ADSL,RANDDT,NA,1,2013-05-31,Randomization,2013-05-31,PFS,Progression Free Survival,1,2,Xan_Hi,Xanomeline High Dose,Xan_Hi,Xanomeline High Dose,79,M
CDISCPILOT01,01-713-1179,Alive,ADSL,LSTALVDT,NA,1,2014-02-05,Alive During Study,2013-08-09,OS,Overall Survival,181,1,Pbo,Placebo,Pbo,Placebo,64,F
CDISCPILOT01,01-713-1179,Randomization,ADSL,RANDDT,NA,1,2013-08-09,Randomization,2013-08-09,PFS,Progression Free Survival,1,2,Pbo,Placebo,Pbo,Placebo,64,F
CDISCPILOT01,01-713-1209,Alive,ADSL,LSTALVDT,NA,1,2013-11-22,Alive During Study,2013-05-27,OS,Overall Survival,180,1,Xan_Hi,Xanomeline High Dose,Xan_Hi,Xanomeline High Dose,77,F
CDISCPILOT01,01-713-1209,Randomization,ADSL,RANDDT,NA,1,2013-05-27,Randomization,2013-05-27,PFS,Progression Free Survival,1,2,Xan_Hi,Xanomeline High Dose,Xan_Hi,Xanomeline High Dose,77,F
CDISCPILOT01,01-713-1256,Alive,ADSL,LSTALVDT,NA,1,2013-03-25,Alive During Study,2012-09-19,OS,Overall Survival,188,1,Pbo,Placebo,Pbo,Placebo,71,M
CDISCPILOT01,01-713-1256,Randomization,ADSL,RANDDT,NA,1,2012-09-19,Randomization,2012-09-19,PFS,Progression Free Survival,1,2,Pbo,Placebo,Pbo,Placebo,71,M
CDISCPILOT01,01-713-1269,Alive,ADSL,LSTALVDT,NA,1,2014-07-28,Alive During Study,2014-01-27,OS,Overall Survival,183,1,Pbo,Placebo,Pbo,Placebo,73,M
CDISCPILOT01,01-713-1269,Randomization,ADSL,RANDDT,NA,1,2014-01-27,Randomization,2014-01-27,PFS,Progression Free Survival,1,2,Pbo,Placebo,Pbo,Placebo,73,M
CDISCPILOT01,01-713-1448,Alive,ADSL,LSTALVDT,NA,1,2014-05-23,Alive During Study,2014-01-19,OS,Overall Survival,125,1,Xan_Lo,Xanomeline Low Dose,Xan_Lo,Xanomeline Low Dose,71,F
CDISCPILOT01,01-713-1448,Randomization,ADSL,RANDDT,NA,1,2014-01-19,Randomization,2014-01-19,PFS,Progression Free Survival,1,2,Xan_Lo,Xanomeline Low Dose,Xan_Lo,Xanomeline Low Dose,71,F
CDISCPILOT01,01-714-1035,Alive,ADSL,LSTALVDT,NA,1,2014-10-16,Alive During Study,2014-04-17,OS,Overall Survival,183,1,Pbo,Placebo,Pbo,Placebo,88,F
CDISCPILOT01,01-714-1035,Randomization,ADSL,RANDDT,NA,1,2014-04-17,Randomization,2014-04-17,PFS,Progression Free Survival,1,2,Pbo,Placebo,Pbo,Placebo,88,F
CDISCPILOT01,01-714-1068,Alive,ADSL,LSTALVDT,NA,1,2013-10-16,Alive During Study,2013-08-08,OS,Overall Survival,70,1,Xan_Lo,Xanomeline Low Dose,Xan_Lo,Xanomeline Low Dose,79,F
CDISCPILOT01,01-714-1068,Randomization,ADSL,RANDDT,NA,1,2013-08-08,Randomization,2013-08-08,PFS,Progression Free Survival,1,2,Xan_Lo,Xanomeline Low Dose,Xan_Lo,Xanomeline Low Dose,79,F
CDISCPILOT01,01-714-1195,Alive,ADSL,LSTALVDT,NA,1,2013-10-23,Alive During Study,2013-04-26,OS,Overall Survival,181,1,Xan_Lo,Xanomeline Low Dose,Xan_Lo,Xanomeline Low Dose,75,M
CDISCPILOT01,01-714-1195,Randomization,ADSL,RANDDT,NA,1,2013-04-26,Randomization,2013-04-26,PFS,Progression Free Survival,1,2,Xan_Lo,Xanomeline Low Dose,Xan_Lo,Xanomeline Low Dose,75,M
CDISCPILOT01,01-714-1288,Alive,ADSL,LSTALVDT,NA,1,2014-06-17,Alive During Study,2013-12-04,OS,Overall Survival,196,1,Xan_Hi,Xanomeline High Dose,Xan_Hi,Xanomeline High Dose,77,M
CDISCPILOT01,01-714-1288,Randomization,ADSL,RANDDT,NA,1,2013-12-04,Randomization,2013-12-04,PFS,Progression Free Survival,1,2,Xan_Hi,Xanomeline High Dose,Xan_Hi,Xanomeline High Dose,77,M
CDISCPILOT01,01-714-1375,Alive,ADSL,LSTALVDT,NA,1,2013-09-07,Alive During Study,2013-02-26,OS,Overall Survival,194,1,Pbo,Placebo,Pbo,Placebo,78,F
CDISCPILOT01,01-714-1375,Randomization,ADSL,RANDDT,NA,1,2013-02-26,Randomization,2013-02-26,PFS,Progression Free Survival,1,2,Pbo,Placebo,Pbo,Placebo,78,F
CDISCPILOT01,01-714-1425,Alive,ADSL,LSTALVDT,NA,1,2013-08-22,Alive During Study,2013-08-15,OS,Overall Survival,8,1,Xan_Hi,Xanomeline High Dose,Xan_Lo,Xanomeline Low Dose,81,M
CDISCPILOT01,01-714-1425,Randomization,ADSL,RANDDT,NA,1,2013-08-15,Randomization,2013-08-15,PFS,Progression Free Survival,1,2,Xan_Hi,Xanomeline High Dose,Xan_Lo,Xanomeline Low Dose,81,M
CDISCPILOT01,01-715-1085,Alive,ADSL,LSTALVDT,NA,1,2013-08-18,Alive During Study,2013-02-16,OS,Overall Survival,184,1,Xan_Lo,Xanomeline Low Dose,Xan_Lo,Xanomeline Low Dose,77,F
CDISCPILOT01,01-715-1085,Randomization,ADSL,RANDDT,NA,1,2013-02-16,Randomization,2013-02-16,PFS,Progression Free Survival,1,2,Xan_Lo,Xanomeline Low Dose,Xan_Lo,Xanomeline Low Dose,77,F
CDISCPILOT01,01-715-1107,Alive,ADSL,LSTALVDT,NA,1,2013-08-14,Alive During Study,2013-02-26,OS,Overall Survival,170,1,Xan_Lo,Xanomeline Low Dose,Xan_Lo,Xanomeline Low Dose,65,M
CDISCPILOT01,01-715-1107,Randomization,ADSL,RANDDT,NA,1,2013-02-26,Randomization,2013-02-26,PFS,Progression Free Survival,1,2,Xan_Lo,Xanomeline Low Dose,Xan_Lo,Xanomeline Low Dose,65,M
CDISCPILOT01,01-715-1155,Alive,ADSL,LSTALVDT,NA,1,2014-01-25,Alive During Study,2013-12-13,OS,Overall Survival,44,1,Pbo,Placebo,Pbo,Placebo,59,F
CDISCPILOT01,01-715-1155,Randomization,ADSL,RANDDT,NA,1,2013-12-13,Randomization,2013-12-13,PFS,Progression Free Survival,1,2,Pbo,Placebo,Pbo,Placebo,59,F
CDISCPILOT01,01-715-1207,Alive,ADSL,LSTALVDT,NA,1,2013-06-01,Alive During Study,2012-11-18,OS,Overall Survival,196,1,Pbo,Placebo,Pbo,Placebo,78,F
CDISCPILOT01,01-715-1207,Randomization,ADSL,RANDDT,NA,1,2012-11-18,Randomization,2012-11-18,PFS,Progression Free Survival,1,2,Pbo,Placebo,Pbo,Placebo,78,F
CDISCPILOT01,01-715-1319,Alive,ADSL,LSTALVDT,NA,1,2013-03-18,Alive During Study,2013-02-17,OS,Overall Survival,30,1,Xan_Hi,Xanomeline High Dose,Xan_Hi,Xanomeline High Dose,65,M
CDISCPILOT01,01-715-1319,Randomization,ADSL,RANDDT,NA,1,2013-02-17,Randomization,2013-02-17,PFS,Progression Free Survival,1,2,Xan_Hi,Xanomeline High Dose,Xan_Hi,Xanomeline High Dose,65,M
CDISCPILOT01,01-715-1321,Alive,ADSL,LSTALVDT,NA,1,2014-04-22,Alive During Study,2014-02-11,OS,Overall Survival,71,1,Xan_Hi,Xanomeline High Dose,Xan_Hi,Xanomeline High Dose,75,F
CDISCPILOT01,01-715-1321,Randomization,ADSL,RANDDT,NA,1,2014-02-11,Randomization,2014-02-11,PFS,Progression Free Survival,1,2,Xan_Hi,Xanomeline High Dose,Xan_Hi,Xanomeline High Dose,75,F
CDISCPILOT01,01-715-1397,Alive,ADSL,LSTALVDT,NA,1,2013-10-03,Alive During Study,2013-04-03,OS,Overall Survival,184,1,Pbo,Placebo,Pbo,Placebo,76,F
CDISCPILOT01,01-715-1397,Randomization,ADSL,RANDDT,NA,1,2013-04-03,Randomization,2013-04-03,PFS,Progression Free Survival,1,2,Pbo,Placebo,Pbo,Placebo,76,F
CDISCPILOT01,01-715-1405,Alive,ADSL,LSTALVDT,NA,1,2013-07-13,Alive During Study,2013-07-06,OS,Overall Survival,8,1,Xan_Lo,Xanomeline Low Dose,Xan_Lo,Xanomeline Low Dose,69,M
CDISCPILOT01,01-715-1405,Randomization,ADSL,RANDDT,NA,1,2013-07-06,Randomization,2013-07-06,PFS,Progression Free Survival,1,2,Xan_Lo,Xanomeline Low Dose,Xan_Lo,Xanomeline Low Dose,69,M
CDISCPILOT01,01-716-1024,Alive,ADSL,LSTALVDT,NA,1,2013-01-20,Alive During Study,2012-07-09,OS,Overall Survival,196,1,Pbo,Placebo,Pbo,Placebo,87,F
CDISCPILOT01,01-716-1024,Randomization,ADSL,RANDDT,NA,1,2012-07-09,Randomization,2012-07-09,PFS,Progression Free Survival,1,2,Pbo,Placebo,Pbo,Placebo,87,F
CDISCPILOT01,01-716-1026,Alive,ADSL,LSTALVDT,NA,1,2014-10-16,Alive During Study,2014-04-02,OS,Overall Survival,198,1,Pbo,Placebo,Pbo,Placebo,73,F
CDISCPILOT01,01-716-1026,Randomization,ADSL,RANDDT,NA,1,2014-04-02,Randomization,2014-04-02,PFS,Progression Free Survival,1,2,Pbo,Placebo,Pbo,Placebo,73,F
CDISCPILOT01,01-716-1030,Alive,ADSL,LSTALVDT,NA,1,2014-01-10,Alive During Study,2013-12-28,OS,Overall Survival,14,1,Xan_Hi,Xanomeline High Dose,Xan_Lo,Xanomeline Low Dose,83,F
CDISCPILOT01,01-716-1030,Randomization,ADSL,RANDDT,NA,1,2013-12-28,Randomization,2013-12-28,PFS,Progression Free Survival,1,2,Xan_Hi,Xanomeline High Dose,Xan_Lo,Xanomeline Low Dose,83,F
CDISCPILOT01,01-716-1044,Alive,ADSL,LSTALVDT,NA,1,2013-11-03,Alive During Study,2013-04-27,OS,Overall Survival,191,1,Pbo,Placebo,Pbo,Placebo,74,M
CDISCPILOT01,01-716-1044,Randomization,ADSL,RANDDT,NA,1,2013-04-27,Randomization,2013-04-27,PFS,Progression Free Survival,1,2,Pbo,Placebo,Pbo,Placebo,74,M
CDISCPILOT01,01-716-1063,Alive,ADSL,LSTALVDT,NA,1,2013-08-28,Alive During Study,2013-05-09,OS,Overall Survival,112,1,Xan_Lo,Xanomeline Low Dose,Xan_Lo,Xanomeline Low Dose,80,M
CDISCPILOT01,01-716-1063,Randomization,ADSL,RANDDT,NA,1,2013-05-09,Randomization,2013-05-09,PFS,Progression Free Survival,1,2,Xan_Lo,Xanomeline Low Dose,Xan_Lo,Xanomeline Low Dose,80,M
CDISCPILOT01,01-716-1071,Alive,ADSL,LSTALVDT,NA,1,2013-08-01,Alive During Study,2013-06-08,OS,Overall Survival,55,1,Xan_Hi,Xanomeline High Dose,Xan_Hi,Xanomeline High Dose,78,F
CDISCPILOT01,01-716-1071,Randomization,ADSL,RANDDT,NA,1,2013-06-08,Randomization,2013-06-08,PFS,Progression Free Survival,1,2,Xan_Hi,Xanomeline High Dose,Xan_Hi,Xanomeline High Dose,78,F
CDISCPILOT01,01-716-1094,Alive,ADSL,LSTALVDT,NA,1,2013-01-26,Alive During Study,2012-12-19,OS,Overall Survival,39,1,Xan_Lo,Xanomeline Low Dose,Xan_Lo,Xanomeline Low Dose,82,M
CDISCPILOT01,01-716-1094,Randomization,ADSL,RANDDT,NA,1,2012-12-19,Randomization,2012-12-19,PFS,Progression Free Survival,1,2,Xan_Lo,Xanomeline Low Dose,Xan_Lo,Xanomeline Low Dose,82,M
CDISCPILOT01,01-716-1103,Alive,ADSL,LSTALVDT,NA,1,2014-09-20,Alive During Study,2014-03-20,OS,Overall Survival,185,1,Xan_Lo,Xanomeline Low Dose,Xan_Lo,Xanomeline Low Dose,79,M
CDISCPILOT01,01-716-1103,Randomization,ADSL,RANDDT,NA,1,2014-03-20,Randomization,2014-03-20,PFS,Progression Free Survival,1,2,Xan_Lo,Xanomeline Low Dose,Xan_Lo,Xanomeline Low Dose,79,M
CDISCPILOT01,01-716-1108,Alive,ADSL,LSTALVDT,NA,1,2013-08-10,Alive During Study,2013-02-12,OS,Overall Survival,180,1,Pbo,Placebo,Pbo,Placebo,86,F
CDISCPILOT01,01-716-1108,Randomization,ADSL,RANDDT,NA,1,2013-02-12,Randomization,2013-02-12,PFS,Progression Free Survival,1,2,Pbo,Placebo,Pbo,Placebo,86,F
CDISCPILOT01,01-716-1151,Alive,ADSL,LSTALVDT,NA,1,2013-06-07,Alive During Study,2013-02-01,OS,Overall Survival,127,1,Xan_Lo,Xanomeline Low Dose,Xan_Lo,Xanomeline Low Dose,83,F
CDISCPILOT01,01-716-1151,Randomization,ADSL,RANDDT,NA,1,2013-02-01,Randomization,2013-02-01,PFS,Progression Free Survival,1,2,Xan_Lo,Xanomeline Low Dose,Xan_Lo,Xanomeline Low Dose,83,F
CDISCPILOT01,01-716-1157,Alive,ADSL,LSTALVDT,NA,1,2014-04-05,Alive During Study,2013-10-02,OS,Overall Survival,186,1,Xan_Lo,Xanomeline Low Dose,Xan_Lo,Xanomeline Low Dose,85,M
CDISCPILOT01,01-716-1157,Randomization,ADSL,RANDDT,NA,1,2013-10-02,Randomization,2013-10-02,PFS,Progression Free Survival,1,2,Xan_Lo,Xanomeline Low Dose,Xan_Lo,Xanomeline Low Dose,85,M
CDISCPILOT01,01-716-1160,Alive,ADSL,LSTALVDT,NA,1,2013-10-11,Alive During Study,2013-04-05,OS,Overall Survival,190,1,Pbo,Placebo,Pbo,Placebo,83,F
CDISCPILOT01,01-716-1160,Randomization,ADSL,RANDDT,NA,1,2013-04-05,Randomization,2013-04-05,PFS,Progression Free Survival,1,2,Pbo,Placebo,Pbo,Placebo,83,F
CDISCPILOT01,01-716-1167,Alive,ADSL,LSTALVDT,NA,1,2013-04-13,Alive During Study,2012-10-08,OS,Overall Survival,188,1,Xan_Lo,Xanomeline Low Dose,Xan_Lo,Xanomeline Low Dose,68,M
CDISCPILOT01,01-716-1167,Randomization,ADSL,RANDDT,NA,1,2012-10-08,Randomization,2012-10-08,PFS,Progression Free Survival,1,2,Xan_Lo,Xanomeline Low Dose,Xan_Lo,Xanomeline Low Dose,68,M
CDISCPILOT01,01-716-1177,Alive,ADSL,LSTALVDT,NA,1,2015-03-05,Alive During Study,2014-09-02,OS,Overall Survival,185,1,Pbo,Placebo,Pbo,Placebo,72,M
CDISCPILOT01,01-716-1177,Randomization,ADSL,RANDDT,NA,1,2014-09-02,Randomization,2014-09-02,PFS,Progression Free Survival,1,2,Pbo,Placebo,Pbo,Placebo,72,M
CDISCPILOT01,01-716-1189,Alive,ADSL,LSTALVDT,NA,1,2013-03-03,Alive During Study,2012-10-09,OS,Overall Survival,146,1,Xan_Hi,Xanomeline High Dose,Xan_Hi,Xanomeline High Dose,81,M
CDISCPILOT01,01-716-1189,Randomization,ADSL,RANDDT,NA,1,2012-10-09,Randomization,2012-10-09,PFS,Progression Free Survival,1,2,Xan_Hi,Xanomeline High Dose,Xan_Hi,Xanomeline High Dose,81,M
CDISCPILOT01,01-716-1229,Alive,ADSL,LSTALVDT,NA,1,2013-04-02,Alive During Study,2013-02-20,OS,Overall Survival,42,1,Xan_Hi,Xanomeline High Dose,Xan_Hi,Xanomeline High Dose,73,F
CDISCPILOT01,01-716-1229,Randomization,ADSL,RANDDT,NA,1,2013-02-20,Randomization,2013-02-20,PFS,Progression Free Survival,1,2,Xan_Hi,Xanomeline High Dose,Xan_Hi,Xanomeline High Dose,73,F
CDISCPILOT01,01-716-1298,Alive,ADSL,LSTALVDT,NA,1,2013-07-06,Alive During Study,2013-04-08,OS,Overall Survival,90,1,Xan_Lo,Xanomeline Low Dose,Xan_Lo,Xanomeline Low Dose,76,F
CDISCPILOT01,01-716-1298,Randomization,ADSL,RANDDT,NA,1,2013-04-08,Randomization,2013-04-08,PFS,Progression Free Survival,1,2,Xan_Lo,Xanomeline Low Dose,Xan_Lo,Xanomeline Low Dose,76,F
CDISCPILOT01,01-716-1308,Alive,ADSL,LSTALVDT,NA,1,2013-10-07,Alive During Study,2013-08-28,OS,Overall Survival,41,1,Pbo,Placebo,Pbo,Placebo,76,F
CDISCPILOT01,01-716-1308,Randomization,ADSL,RANDDT,NA,1,2013-08-28,Randomization,2013-08-28,PFS,Progression Free Survival,1,2,Pbo,Placebo,Pbo,Placebo,76,F
CDISCPILOT01,01-716-1311,Alive,ADSL,LSTALVDT,NA,1,2014-09-30,Alive During Study,2014-05-14,OS,Overall Survival,140,1,Xan_Lo,Xanomeline Low Dose,Xan_Lo,Xanomeline Low Dose,78,M
CDISCPILOT01,01-716-1311,Randomization,ADSL,RANDDT,NA,1,2014-05-14,Randomization,2014-05-14,PFS,Progression Free Survival,1,2,Xan_Lo,Xanomeline Low Dose,Xan_Lo,Xanomeline Low Dose,78,M
CDISCPILOT01,01-716-1364,Alive,ADSL,LSTALVDT,NA,1,2014-01-09,Alive During Study,2013-07-04,OS,Overall Survival,190,1,Xan_Hi,Xanomeline High Dose,Xan_Hi,Xanomeline High Dose,84,F
CDISCPILOT01,01-716-1364,Randomization,ADSL,RANDDT,NA,1,2013-07-04,Randomization,2013-07-04,PFS,Progression Free Survival,1,2,Xan_Hi,Xanomeline High Dose,Xan_Hi,Xanomeline High Dose,84,F
CDISCPILOT01,01-716-1373,Alive,ADSL,LSTALVDT,NA,1,2013-02-28,Alive During Study,2012-12-14,OS,Overall Survival,77,1,Xan_Hi,Xanomeline High Dose,Xan_Hi,Xanomeline High Dose,74,M
CDISCPILOT01,01-716-1373,Randomization,ADSL,RANDDT,NA,1,2012-12-14,Randomization,2012-12-14,PFS,Progression Free Survival,1,2,Xan_Hi,Xanomeline High Dose,Xan_Hi,Xanomeline High Dose,74,M
CDISCPILOT01,01-716-1418,Alive,ADSL,LSTALVDT,NA,1,2013-11-20,Alive During Study,2013-05-05,OS,Overall Survival,200,1,Xan_Hi,Xanomeline High Dose,Xan_Hi,Xanomeline High Dose,80,F
CDISCPILOT01,01-716-1418,Randomization,ADSL,RANDDT,NA,1,2013-05-05,Randomization,2013-05-05,PFS,Progression Free Survival,1,2,Xan_Hi,Xanomeline High Dose,Xan_Hi,Xanomeline High Dose,80,F
CDISCPILOT01,01-716-1441,Alive,ADSL,LSTALVDT,NA,1,2014-07-22,Alive During Study,2014-01-22,OS,Overall Survival,182,1,Pbo,Placebo,Pbo,Placebo,85,M
CDISCPILOT01,01-716-1441,Randomization,ADSL,RANDDT,NA,1,2014-01-22,Randomization,2014-01-22,PFS,Progression Free Survival,1,2,Pbo,Placebo,Pbo,Placebo,85,M
CDISCPILOT01,01-716-1447,Alive,ADSL,LSTALVDT,NA,1,2014-06-17,Alive During Study,2013-12-16,OS,Overall Survival,184,1,Xan_Hi,Xanomeline High Dose,Xan_Hi,Xanomeline High Dose,72,F
CDISCPILOT01,01-716-1447,Randomization,ADSL,RANDDT,NA,1,2013-12-16,Randomization,2013-12-16,PFS,Progression Free Survival,1,2,Xan_Hi,Xanomeline High Dose,Xan_Hi,Xanomeline High Dose,72,F
CDISCPILOT01,01-717-1004,Alive,ADSL,LSTALVDT,NA,1,2014-07-16,Alive During Study,2014-01-14,OS,Overall Survival,184,1,Xan_Lo,Xanomeline Low Dose,Xan_Lo,Xanomeline Low Dose,80,F
CDISCPILOT01,01-717-1004,Randomization,ADSL,RANDDT,NA,1,2014-01-14,Randomization,2014-01-14,PFS,Progression Free Survival,1,2,Xan_Lo,Xanomeline Low Dose,Xan_Lo,Xanomeline Low Dose,80,F
CDISCPILOT01,01-717-1109,Alive,ADSL,LSTALVDT,NA,1,2014-07-28,Alive During Study,2014-01-27,OS,Overall Survival,183,1,Xan_Hi,Xanomeline High Dose,Xan_Hi,Xanomeline High Dose,84,M
CDISCPILOT01,01-717-1109,Randomization,ADSL,RANDDT,NA,1,2014-01-27,Randomization,2014-01-27,PFS,Progression Free Survival,1,2,Xan_Hi,Xanomeline High Dose,Xan_Hi,Xanomeline High Dose,84,M
CDISCPILOT01,01-717-1174,Alive,ADSL,LSTALVDT,NA,1,2013-07-24,Alive During Study,2013-01-22,OS,Overall Survival,184,1,Xan_Hi,Xanomeline High Dose,Xan_Hi,Xanomeline High Dose,73,M
CDISCPILOT01,01-717-1174,Randomization,ADSL,RANDDT,NA,1,2013-01-22,Randomization,2013-01-22,PFS,Progression Free Survival,1,2,Xan_Hi,Xanomeline High Dose,Xan_Hi,Xanomeline High Dose,73,M
CDISCPILOT01,01-717-1201,Alive,ADSL,LSTALVDT,NA,1,2014-02-21,Alive During Study,2013-12-19,OS,Overall Survival,65,1,Pbo,Placebo,Pbo,Placebo,85,F
CDISCPILOT01,01-717-1201,Randomization,ADSL,RANDDT,NA,1,2013-12-19,Randomization,2013-12-19,PFS,Progression Free Survival,1,2,Pbo,Placebo,Pbo,Placebo,85,F
CDISCPILOT01,01-717-1344,Alive,ADSL,LSTALVDT,NA,1,2014-03-14,Alive During Study,2014-01-11,OS,Overall Survival,63,1,Pbo,Placebo,Pbo,Placebo,64,F
CDISCPILOT01,01-717-1344,Randomization,ADSL,RANDDT,NA,1,2014-01-11,Randomization,2014-01-11,PFS,Progression Free Survival,1,2,Pbo,Placebo,Pbo,Placebo,64,F
CDISCPILOT01,01-717-1357,Alive,ADSL,LSTALVDT,NA,1,2013-10-20,Alive During Study,2013-05-01,OS,Overall Survival,173,1,Xan_Hi,Xanomeline High Dose,Xan_Hi,Xanomeline High Dose,77,M
CDISCPILOT01,01-717-1357,Randomization,ADSL,RANDDT,NA,1,2013-05-01,Randomization,2013-05-01,PFS,Progression Free Survival,1,2,Xan_Hi,Xanomeline High Dose,Xan_Hi,Xanomeline High Dose,77,M
CDISCPILOT01,01-717-1446,Alive,ADSL,LSTALVDT,NA,1,2014-03-17,Alive During Study,2013-09-01,OS,Overall Survival,198,1,Xan_Lo,Xanomeline Low Dose,Xan_Lo,Xanomeline Low Dose,75,F
CDISCPILOT01,01-717-1446,Randomization,ADSL,RANDDT,NA,1,2013-09-01,Randomization,2013-09-01,PFS,Progression Free Survival,1,2,Xan_Lo,Xanomeline Low Dose,Xan_Lo,Xanomeline Low Dose,75,F
CDISCPILOT01,01-718-1066,Alive,ADSL,LSTALVDT,NA,1,2013-07-30,Alive During Study,2013-07-07,OS,Overall Survival,24,1,Xan_Lo,Xanomeline Low Dose,Xan_Lo,Xanomeline Low Dose,79,F
CDISCPILOT01,01-718-1066,Randomization,ADSL,RANDDT,NA,1,2013-07-07,Randomization,2013-07-07,PFS,Progression Free Survival,1,2,Xan_Lo,Xanomeline Low Dose,Xan_Lo,Xanomeline Low Dose,79,F
CDISCPILOT01,01-718-1079,Alive,ADSL,LSTALVDT,NA,1,2012-10-31,Alive During Study,2012-09-19,OS,Overall Survival,43,1,Xan_Lo,Xanomeline Low Dose,Xan_Lo,Xanomeline Low Dose,67,F
CDISCPILOT01,01-718-1079,Randomization,ADSL,RANDDT,NA,1,2012-09-19,Randomization,2012-09-19,PFS,Progression Free Survival,1,2,Xan_Lo,Xanomeline Low Dose,Xan_Lo,Xanomeline Low Dose,67,F
CDISCPILOT01,01-718-1101,Alive,ADSL,LSTALVDT,NA,1,2013-08-02,Alive During Study,2013-02-17,OS,Overall Survival,167,1,Xan_Hi,Xanomeline High Dose,Xan_Hi,Xanomeline High Dose,82,M
CDISCPILOT01,01-718-1101,Randomization,ADSL,RANDDT,NA,1,2013-02-17,Randomization,2013-02-17,PFS,Progression Free Survival,1,2,Xan_Hi,Xanomeline High Dose,Xan_Hi,Xanomeline High Dose,82,M
CDISCPILOT01,01-718-1139,Alive,ADSL,LSTALVDT,NA,1,2013-11-17,Alive During Study,2013-05-19,OS,Overall Survival,183,1,Pbo,Placebo,Pbo,Placebo,77,M
CDISCPILOT01,01-718-1139,Randomization,ADSL,RANDDT,NA,1,2013-05-19,Randomization,2013-05-19,PFS,Progression Free Survival,1,2,Pbo,Placebo,Pbo,Placebo,77,M
CDISCPILOT01,01-718-1150,Alive,ADSL,LSTALVDT,NA,1,2013-07-31,Alive During Study,2013-01-19,OS,Overall Survival,194,1,Pbo,Placebo,Pbo,Placebo,73,F
CDISCPILOT01,01-718-1150,Randomization,ADSL,RANDDT,NA,1,2013-01-19,Randomization,2013-01-19,PFS,Progression Free Survival,1,2,Pbo,Placebo,Pbo,Placebo,73,F
CDISCPILOT01,01-718-1170,Alive,ADSL,LSTALVDT,NA,1,2013-11-03,Alive During Study,2013-09-16,OS,Overall Survival,49,1,Xan_Lo,Xanomeline Low Dose,Xan_Lo,Xanomeline Low Dose,80,F
CDISCPILOT01,01-718-1170,Randomization,ADSL,RANDDT,NA,1,2013-09-16,Randomization,2013-09-16,PFS,Progression Free Survival,1,2,Xan_Lo,Xanomeline Low Dose,Xan_Lo,Xanomeline Low Dose,80,F
CDISCPILOT01,01-718-1172,Alive,ADSL,LSTALVDT,NA,1,2013-11-29,Alive During Study,2013-09-21,OS,Overall Survival,70,1,Pbo,Placebo,Pbo,Placebo,74,M
CDISCPILOT01,01-718-1172,Randomization,ADSL,RANDDT,NA,1,2013-09-21,Randomization,2013-09-21,PFS,Progression Free Survival,1,2,Pbo,Placebo,Pbo,Placebo,74,M
CDISCPILOT01,01-718-1250,Alive,ADSL,LSTALVDT,NA,1,2014-02-19,Alive During Study,2013-09-21,OS,Overall Survival,152,1,Xan_Lo,Xanomeline Low Dose,Xan_Lo,Xanomeline Low Dose,82,F
CDISCPILOT01,01-718-1250,Randomization,ADSL,RANDDT,NA,1,2013-09-21,Randomization,2013-09-21,PFS,Progression Free Survival,1,2,Xan_Lo,Xanomeline Low Dose,Xan_Lo,Xanomeline Low Dose,82,F
CDISCPILOT01,01-718-1254,Alive,ADSL,LSTALVDT,NA,1,2014-01-09,Alive During Study,2013-07-10,OS,Overall Survival,184,1,Xan_Lo,Xanomeline Low Dose,Xan_Lo,Xanomeline Low Dose,78,M
CDISCPILOT01,01-718-1254,Randomization,ADSL,RANDDT,NA,1,2013-07-10,Randomization,2013-07-10,PFS,Progression Free Survival,1,2,Xan_Lo,Xanomeline Low Dose,Xan_Lo,Xanomeline Low Dose,78,M
CDISCPILOT01,01-718-1328,Alive,ADSL,LSTALVDT,NA,1,2013-05-01,Alive During Study,2013-02-01,OS,Overall Survival,90,1,Xan_Hi,Xanomeline High Dose,Xan_Hi,Xanomeline High Dose,86,M
CDISCPILOT01,01-718-1328,Randomization,ADSL,RANDDT,NA,1,2013-02-01,Randomization,2013-02-01,PFS,Progression Free Survival,1,2,Xan_Hi,Xanomeline High Dose,Xan_Hi,Xanomeline High Dose,86,M
CDISCPILOT01,01-718-1355,Alive,ADSL,LSTALVDT,NA,1,2013-08-29,Alive During Study,2013-02-28,OS,Overall Survival,183,1,Pbo,Placebo,Pbo,Placebo,79,M
CDISCPILOT01,01-718-1355,Randomization,ADSL,RANDDT,NA,1,2013-02-28,Randomization,2013-02-28,PFS,Progression Free Survival,1,2,Pbo,Placebo,Pbo,Placebo,79,M
CDISCPILOT01,01-718-1371,Alive,ADSL,LSTALVDT,NA,1,2013-08-01,Alive During Study,2013-04-26,OS,Overall Survival,98,1,Xan_Hi,Xanomeline High Dose,Xan_Hi,Xanomeline High Dose,69,F
CDISCPILOT01,01-718-1371,Randomization,ADSL,RANDDT,NA,1,2013-04-26,Randomization,2013-04-26,PFS,Progression Free Survival,1,2,Xan_Hi,Xanomeline High Dose,Xan_Hi,Xanomeline High Dose,69,F
CDISCPILOT01,01-718-1427,Alive,ADSL,LSTALVDT,NA,1,2013-02-25,Alive During Study,2012-12-17,OS,Overall Survival,71,1,Xan_Hi,Xanomeline High Dose,Xan_Hi,Xanomeline High Dose,74,F
CDISCPILOT01,01-718-1427,Randomization,ADSL,RANDDT,NA,1,2012-12-17,Randomization,2012-12-17,PFS,Progression Free Survival,1,2,Xan_Hi,Xanomeline High Dose,Xan_Hi,Xanomeline High Dose,74,F
